Timestamp (ms),Accel X (g),Accel Y (g),Accel Z (g)
1526330810121,-1.0111848630502784,0.09625391012436069,0.011779964904249596
1526330810137,-0.9999542229343099,0.0957656214236664,0.01617456321049815
1526330810153,-1.0004425116350042,0.07818722819867219,0.0015259021896696368
1526330810169,-0.97944609750515,0.07037460898756365,0.008850232700083893
1526330810185,-0.9672388799877929,0.06793316548409223,-0.018005645838101714
1526330810201,-0.9604028381780729,0.030823224231326662,-0.031189440756847375
1526330810217,-0.9813992523079271,6.103608758678547E-5,-0.02288853284504455
1526330810233,-0.9989776455329213,-0.02288853284504455,-0.03704890516517878
1526330810249,-0.9975127794308385,-0.02923628595407024,-0.06195162890058725
1526330810265,-1.0136263065537499,-0.018005645838101714,-0.04876783398184159
1526330810281,-1.0067902647440299,0.017151140611886717,-0.04486152437628732
1526330810298,-1.0126497291523613,0.043030441748683756,-0.04046692607003877
1526330810314,-1.0131380178530556,0.04205386434729519,-0.04486152437628732
1526330810330,-1.0102082856488899,0.02789349202716096,-0.058533607995727266
1526330810346,-1.0165560387579156,0.02008087281605242,-0.05267414358739586
1526330810362,-1.0141145952544441,0.0357061112382695,-0.07855344472419334
1526330810378,-1.0170443274586098,0.05816739147020655,-0.07904173342488763
1526330810394,-1.0072785534447242,0.05523765926604085,-0.08441290913252475
1526330810410,-0.9848172732127871,0.05279621576256943,-0.07122911421377909
1526330810426,-0.9945830472266728,0.03961242084382377,-0.07464713511863907
1526330810442,-1.018997482261387,0.03424124513618665,-0.07269398031586194
1526330810458,-1.0063019760433356,0.028870069428549527,-0.062439917601281536
1526330810474,-1.0111848630502784,0.03961242084382377,-0.0575570305943387
1526330810490,-0.9843289845120928,0.053284504463263715,-0.06683451590753053
1526330810506,-0.9784695201037614,0.04644846265354374,-0.07562371252002764
1526330810522,-0.9687037460898758,0.05816739147020655,-0.1010147249561304
1526330810538,-0.98628213931487,0.037659266041046635,-0.11419851987487606
1526330810554,-0.9882352941176471,0.022034027618829555,-0.1249408712901503
1526330810570,-0.9945830472266728,0.010803387502861028,-0.10492103456168467
1526330810586,-1.0014190890363928,-0.004333562218661768,-0.12445258258945602
1526330810602,-0.9945830472266728,0.00982681010147246,-0.1342183566033417
1526330810618,-1.0043488212405585,0.0039673456931410556,-0.1308003356984817
1526330810634,-1.001907377737087,0.007385366598001042,-0.14154268711375595
1526330810650,-1.0102082856488899,0.03033493553063238,-0.17425803006027296
1526330810666,-0.9872587167162585,0.04351873044937804,-0.19964904249637616
1526330810682,-0.9735866330968186,0.030823224231326662,-0.19964904249637616
1526330810698,-1.0058136873426413,0.019104295414663852,-0.20990310521095612
1526330810714,-1.034622720683604,0.03668268863965807,-0.2284580758373389
1526330810730,-1.0043488212405585,0.061097123674372256,-0.21429770351720467
1526330810746,-0.9486839093614101,0.11822690165560346,-0.17230487525749583
1526330810765,-0.925246051728084,0.17145037003128127,-0.1581445029373616
1526330810781,-0.9164568551155869,0.20807202258335256,-0.1820706492713815
1526330810797,-0.9047379262989241,0.20465400167849257,-0.2108796826123447
1526330810813,-0.8979018844892042,0.19879453727016116,-0.25140764476997024
1526330810829,-0.8866712443732356,0.1973296711680783,-0.28656443121995867
1526330810845,-0.8793469138628214,0.21637293049515538,-0.29925993743801005
1526330810861,-0.8988784618905927,0.27692072938124657,-0.2919356069275958
1526330810877,-0.9340352483405812,0.3028000305180436,-0.32513923857480753
1526330810893,-0.9594262607766844,0.3218432898451207,-0.32806897077897323
1526330810909,-0.9696803234912643,0.34674601358052914,-0.32513923857480753
1526330810925,-0.9613794155794615,0.3628595407034405,-0.34320592050049603
1526330810941,-0.9706569008926529,0.3638361181048291,-0.3358815899900818
1526330810957,-0.9716334782940415,0.3604180971999691,-0.32513923857480753
1526330810973,-0.9545433737697415,0.3609063859006634,-0.33685816739147034
1526330810989,-0.9701686121919586,0.3609063859006634,-0.33295185778591607
1526330811005,-0.9628442816815443,0.344792858777752,-0.3266041046768904
1526330811021,-0.9403830014496073,0.3262378881513692,-0.32758068207827895
1526330811037,-0.9276874952315555,0.31354238193331785,-0.3070725566491186
1526330811053,-0.9052262149996184,0.3032883192187379,-0.32465094987411325
1526330811069,-0.8920424200808728,0.3003585870145722,-0.3441824979018846
1526330811085,-0.8944838635843442,0.30426489662012646,-0.3529716945143817
1526330811101,-0.8744640268558785,0.3091477836270693,-0.3715266651407645
1526330811117,-0.8837415121690699,0.31012436102845786,-0.36371404592965595
1526330811133,-0.8773937590600442,0.2876630807965208,-0.393011367971313
1526330811149,-0.895948729686427,0.28326848249027226,-0.37836270695048446
1526330811165,-0.8910658426794842,0.2754558632791637,-0.3920347905699244
1526330811181,-0.8847180895704585,0.27106126497291516,-0.39935912108033866
1526330811197,-0.8783703364614328,0.2671549553673609,-0.382757305256733
1526330811213,-0.8876478217746242,0.2881513694972151,-0.4101014724956129
1526330811229,-0.8729991607537957,0.2695963988708323,-0.38715190356298157
1526330811245,-0.8813000686655985,0.28912794689860366,-0.40570687418936435
1526330811261,-0.8793469138628214,0.25592431525139236,-0.4037537193865872
1526330811277,-0.8847180895704585,0.2647135118638895,-0.3768978408484016
1526330811293,-0.8827649347676814,0.25983062485694663,-0.40521858548867007
1526330811310,-0.8793469138628214,0.25983062485694663,-0.41840238040741573
1526330811326,-0.9101091020065613,0.2520180056458381,-0.42914473182269
1526330811342,-0.9145037003128098,0.24420538643472955,-0.4247501335164414
1526330811358,-0.9071793698023956,0.22906843671320676,-0.4198672465094986
1526330811374,-0.8920424200808728,0.23150988021667818,-0.41742580300602716
1526330811390,-0.8881361104753185,0.20270084687571543,-0.4066834515907529
1526330811408,-0.889112687876707,0.19879453727016116,-0.41205462729839004
1526330811424,-0.8920424200808728,0.19879453727016116,-0.3988708323796444
1526330811440,-0.8910658426794842,0.21197833218890683,-0.40033569848172723
1526330811456,-0.8837415121690699,0.20221255817502115,-0.4320744640268557
1526330811472,-0.8974135957885099,0.2095368886854354,-0.4379339284351875
1526330811488,-0.8856946669718471,0.2280918593118182,-0.4384222171358818
1526330811504,-0.8861829556725414,0.21637293049515538,-0.41205462729839004
1526330811520,-0.8837415121690699,0.2066071564812697,-0.4130312046997786
1526330811536,-0.8876478217746242,0.21832608529793252,-0.4320744640268557
1526330811552,-0.88032349126421,0.19537651636530118,-0.42963302052338426
1526330811568,-0.8939955748836499,0.18512245365072122,-0.44867627985046177
1526330811584,-0.8852063782711528,0.18316929884794408,-0.4418402380407418
1526330811600,-0.8725108720531014,0.18219272144655552,-0.43305104142824424
1526330811616,-0.8749523155565728,0.17291523613336413,-0.4276798657206071
1526330811633,-0.8783703364614328,0.16314946211947845,-0.4345159075303271
1526330811649,-0.8793469138628214,0.16559090562294987,-0.42328526741435857
1526330811665,-0.8827649347676814,0.16412603952086702,-0.4315861753261614
1526330811681,-0.895948729686427,0.16070801861600703,-0.43012130922407854
1526330811697,-0.9315938048371097,0.1343404287785157,-0.44965285725185034
1526330811713,-0.9271992065308612,0.1372701609826814,-0.45502403295948746
1526330811729,-0.9306172274357212,0.14459449149309567,-0.47650873579003594
1526330811745,-0.8910658426794842,0.1372701609826814,-0.46771953917753883
1526330811761,-0.8686045624475471,0.12359807736324058,-0.4950637064164187
1526330811777,-0.8881361104753185,0.09088273441672357,-0.49701686121919586
1526330811793,-0.9145037003128098,0.08404669260700359,-0.42377355611505285
1526330811809,-0.9340352483405812,0.13238727397573857,-0.4740672922865645
1526330811825,-0.9145037003128098,0.15045395590142707,-0.4657663843747617
1526330811841,-0.9022964827954527,0.14557106889448423,-0.4315861753261614
1526330811857,-0.8915541313801785,0.1499656672007328,-0.41156633859769576
1526330811873,-0.8866712443732356,0.14215304798962425,-0.4101014724956129
1526330811889,-0.8935072861829556,0.12945754177157287,-0.4130312046997786
1526330811905,-0.9013199053940641,0.12945754177157287,-0.3808041504539559
1526330811921,-0.8910658426794842,0.12115663385976916,-0.4042420080872815
1526330811937,-0.8935072861829556,0.14264133669031853,-0.4013122758831158
1526330811953,-0.8866712443732356,0.1284809643701843,-0.40912489509422434
1526330811969,-0.892530708781567,0.12115663385976916,-0.42670328831921855
1526330811985,-0.9105973907072555,0.1318989852750443,-0.38812848096437014
1526330812001,-0.9105973907072555,0.10113679713130352,-0.4130312046997786
1526330812017,-0.8930189974822613,0.09967193102922067,-0.42572671091783
1526330812033,-0.8979018844892042,0.08795300221255786,-0.4374456397344928
1526330812051,-0.9003433279926756,0.08746471351186358,-0.42377355611505285
1526330812067,-0.9179217212176698,0.10211337453269209,-0.4101014724956129
1526330812084,-0.9193865873197526,0.10992599374380063,-0.4066834515907529
1526330812100,-0.9164568551155869,0.12262149996185201,-0.41498435950255574
1526330812116,-0.9105973907072555,0.13092240787365572,-0.40570687418936435
1526330812132,-0.8969253070878156,0.12457465476462914,-0.40033569848172723
1526330812148,-0.902784771496147,0.12750438696879574,-0.386175326161593
1526330812164,-0.8813000686655985,0.12213321126115773,-0.4135194934004729
1526330812180,-0.889112687876707,0.13385214007782142,-0.39984740978103295
1526330812196,-0.8837415121690699,0.11773861295490917,-0.37250324254215306
1526330812212,-0.9223163195239183,0.11334401464866062,-0.3778744182497902
1526330812228,-0.9159685664148927,0.09039444571602928,-0.39691767757686724
1526330812244,-0.9120622568093384,0.07623407339589505,-0.3915465018692301
1526330812260,-0.8969253070878156,0.08258182650492074,-0.3920347905699244
1526330812276,-0.913038834210727,0.1050431067368578,-0.3832455939574273
1526330812292,-0.9345235370412754,0.10699626153963493,-0.39691767757686724
1526330812308,-0.9379415579461359,0.10992599374380063,-0.4423285267414361
1526330812324,-0.9271992065308612,0.10113679713130352,-0.45258258945601604
1526330812340,-0.9032730601968413,0.07232776379034078,-0.4042420080872815
1526330812356,-0.8866712443732356,0.06060883497367797,-0.40521858548867007
1526330812372,-0.8915541313801785,0.06256198977645511,-0.3651789120317388
1526330812388,-0.8979018844892042,0.07525749599450648,-0.4071717402914472
1526330812404,-0.9242694743266955,0.07672236209658934,-0.40033569848172723
1526330812420,-0.9296406500343326,0.1050431067368578,-0.3798275730525673
1526330812436,-0.9125505455100327,0.09723048752574925,-0.3891050583657587
1526330812453,-0.889112687876707,0.10699626153963493,-0.4008239871824215
1526330812469,-0.899366750591287,0.10894941634241206,-0.382757305256733
1526330812485,-0.9037613488975356,0.12408636606393486,-0.393011367971313
1526330812501,-0.9154802777141984,0.10748455024032921,-0.3954528114747844
1526330812517,-0.8871595330739299,0.11969176775768631,-0.3768978408484016
1526330812533,-0.9076676585030898,0.12018005645838059,-0.393011367971313
1526330812549,-0.9018081940947584,0.11285572594796633,-0.40521858548867007
1526330812565,-0.9188982986190584,0.10601968413824636,-0.4218204013122757
1526330812581,-0.9237811856260012,0.11285572594796633,-0.3471122301060503
1526330812597,-0.9271992065308612,0.11432059205004919,-0.3622491798275731
1526330812613,-0.9394064240482187,0.11529716945143775,-0.38422217135881587
1526330812629,-0.9213397421225298,0.11627374685282632,-0.4130312046997786
1526330812645,-0.9257343404287783,0.11334401464866062,-0.4159609369039443
1526330812661,-0.9359884031433583,0.11041428244449492,-0.3676203555352102
1526330812677,-0.9301289387350269,0.11578545815213204,-0.35492484931715884
1526330812695,-0.9486839093614101,0.10846112764171778,-0.346623941405356
1526330812711,-0.9364766918440526,0.10016021972991496,-0.3778744182497902
1526330812727,-0.9403830014496073,0.08599984740978073,-0.3593194476234074
1526330812743,-0.9169451438162812,0.08746471351186358,-0.3720149538414588
1526330812759,-0.9145037003128098,0.09088273441672357,-0.36078431372549025
1526330812775,-0.9164568551155869,0.09039444571602928,-0.36371404592965595
1526330812791,-0.9140154116121155,0.09430075532158355,-0.35150682841229886
1526330812807,-0.9232928969253069,0.09771877622644354,-0.3529716945143817
1526330812823,-0.9232928969253069,0.089906157015335,-0.3744563973449302
1526330812839,-0.9135271229114212,0.08941786831464071,-0.39056992446784156
1526330812855,-0.9213397421225298,0.09039444571602928,-0.36615548943312737
1526330812871,-0.9247577630273898,0.08746471351186358,-0.3676203555352102
1526330812887,-0.9110856794079498,0.09771877622644354,-0.36322575722896167
1526330812904,-0.9159685664148927,0.1050431067368578,-0.36078431372549025
1526330812920,-0.9188982986190584,0.11773861295490917,-0.3837338826581216
1526330812936,-0.9120622568093384,0.10406652933546923,-0.3920347905699244
1526330812952,-0.9203631647211412,0.11529716945143775,-0.34222934309910746
1526330812968,-0.8964370183871213,0.13043411917296144,-0.3715266651407645
1526330812984,-0.9247577630273898,0.12701609826810145,-0.36664377813382165
1526330813000,-0.9110856794079498,0.1255512321660186,-0.3598077363241017
1526330813016,-0.9198748760204469,0.10211337453269209,-0.36078431372549025
1526330813032,-0.9340352483405812,0.10064850843060924,-0.3656672007324331
1526330813048,-0.9242694743266955,0.10357824063477494,-0.35785458152132454
1526330813064,-0.9364766918440526,0.10943770504310635,-0.3768978408484016
1526330813080,-0.9223163195239183,0.11822690165560346,-0.3734798199435416
1526330813096,-0.925246051728084,0.11480888075074347,-0.36127260242618453
1526330813112,-0.9125505455100327,0.13580529488059856,-0.3803158617532616
1526330813128,-0.9271992065308612,0.12994583047226715,-0.37885099565117875
1526330813144,-0.9311055161364155,0.12506294346532432,-0.3720149538414588
1526330813160,-0.9350118257419697,0.12066834515907487,-0.35736629282063026
1526330813176,-0.9218280308232241,0.13043411917296144,-0.3798275730525673
1526330813192,-0.9306172274357212,0.12994583047226715,-0.3886167696650644
1526330813208,-0.9340352483405812,0.11822690165560346,-0.3808041504539559
1526330813225,-0.9257343404287783,0.12408636606393486,-0.37933928435187303
1526330813241,-0.9359884031433583,0.11139085984588348,-0.3768978408484016
1526330813257,-0.928664072632944,0.11529716945143775,-0.382757305256733
1526330813273,-0.9340352483405812,0.11529716945143775,-0.38226901655603873
1526330813289,-0.9442893110551616,0.11969176775768631,-0.3715266651407645
1526330813305,-0.9345235370412754,0.12066834515907487,-0.38226901655603873
1526330813321,-0.9442893110551616,0.11285572594796633,-0.3764095521477073
1526330813338,-0.9506370641641873,0.11236743724727205,-0.3681086442359045
1526330813354,-0.9438010223544673,0.12457465476462914,-0.35834287022201883
1526330813370,-0.9628442816815443,0.11725032425421489,-0.3627374685282674
1526330813387,-0.9706569008926529,0.10894941634241206,-0.3915465018692301
1526330813403,-0.9687037460898758,0.10308995193408066,-0.3866636148622873
1526330813419,-0.9804226749065386,0.10455481803616351,-0.3944762340733958
1526330813435,-0.9716334782940415,0.09771877622644354,-0.3734798199435416
1526330813451,-0.9662623025864043,0.09967193102922067,-0.36908522163729307
1526330813467,-0.9496604867627987,0.1109025711451892,-0.3734798199435416
1526330813483,-0.9696803234912643,0.09625391012436069,-0.3593194476234074
1526330813499,-0.9848172732127871,0.11529716945143775,-0.34857709620813315
1526330813515,-0.9740749217975129,0.09771877622644354,-0.3739681086442359
1526330813531,-0.9716334782940415,0.0747692072938122,-0.3192797741664761
1526330813547,-0.9770046540016786,0.053284504463263715,-0.24701304646372169
1526330813563,-0.9589379720759901,0.029846646829938095,-0.2826581216144044
1526330813579,-0.9550316624704358,0.018127718013275285,-0.27777523460746156
1526330813595,-0.9330586709391926,0.06646829938200938,-0.25775539787899593
1526330813611,-0.9213397421225298,0.10260166323338638,-0.2533607995727474
1526330813627,-0.9052262149996184,0.1138323033493549,-0.269962615396353
1526330813643,-0.8979018844892042,0.11920347905699202,-0.2548256656748302
1526330813660,-0.9018081940947584,0.11920347905699202,-0.2289463645380332
1526330813676,-0.8939955748836499,0.089906157015335,-0.21234454871442754
1526330813692,-0.86323338673991,0.09625391012436069,-0.20355535210193043
1526330813708,-0.8793469138628214,0.1318989852750443,-0.20502021820401328
1526330813724,-0.8905775539787899,0.12603952086671288,-0.22015716792553608
1526330813740,-0.909620813305867,0.11725032425421489,-0.2108796826123447
1526330813756,-0.9315938048371097,0.11920347905699202,-0.19476615548943332
1526330813772,-0.935500114442664,0.11871519035629774,-0.20599679560540185
1526330813788,-0.9584496833752958,0.09723048752574925,-0.21722743572137038
1526330813804,-0.9491721980621044,0.08795300221255786,-0.2162508583199818
1526330813820,-0.97261005569543,0.08355840390630931,-0.2377355611505303
1526330813836,-0.9921416037232014,0.09381246662088927,-0.25677882047760736
1526330813852,-0.9867704280155642,0.08599984740978073,-0.23675898374914173
1526330813868,-0.9867704280155642,0.07574578469520077,-0.2343175402456703
1526330813884,-0.9647974364843215,0.07037460898756365,-0.2704509040970473
1526330813900,-0.96919203479057,0.08892957961394643,-0.276798657206073
1526330813916,-0.9677271686884872,0.09039444571602928,-0.27777523460746156
1526330813932,-0.9789578088044557,0.08795300221255786,-0.2909590295262072
1526330813949,-0.9662623025864043,0.09527733272297212,-0.28705271992065295
1526330813965,-0.97261005569543,0.08746471351186358,-0.27533379110399014
1526330813982,-0.9623559929808501,0.07867551689936647,-0.28998245212481866
1526330813998,-0.9770046540016786,0.07965209430075504,-0.2797283894102387
1526330814014,-0.9745632104982072,0.08111696040283789,-0.30511940184634145
1526330814030,-0.9638208590829329,0.06744487678339794,-0.28656443121995867
1526330814046,-0.9589379720759901,0.08258182650492074,-0.29974822613870433
1526330814062,-0.9452658884565501,0.10113679713130352,-0.29681849393453863
1526330814078,-0.9438010223544673,0.09039444571602928,-0.30511940184634145
1526330814094,-0.9652857251850158,0.09771877622644354,-0.2924238956282901
1526330814110,-0.9506370641641873,0.11334401464866062,-0.30951400015259
1526330814126,-0.9311055161364155,0.08258182650492074,-0.2821698329137101
1526330814143,-0.9452658884565501,0.09234760051880642,-0.3124437323567557
1526330814159,-0.9604028381780729,0.07818722819867219,-0.2831464103150987
1526330814175,-0.9525902189669644,0.09771877622644354,-0.30853742275120144
1526330814191,-0.953566796368353,0.07818722819867219,-0.3236743724727247
1526330814207,-0.9511253528648815,0.08844129091325215,-0.2953536278324558
1526330814223,-0.9481956206607158,0.09039444571602928,-0.29974822613870433
1526330814239,-0.9418478675516901,0.09478904402227784,-0.32416266117341896
1526330814255,-0.9374532692454411,0.10113679713130352,-0.29584191653315006
1526330814271,-0.9521019302662701,0.08111696040283789,-0.30951400015259
1526330814287,-0.9545433737697415,0.07037460898756365,-0.31146715495536714
1526330814303,-0.9486839093614101,0.07818722819867219,-0.3168383306630047
1526330814319,-0.9604028381780729,0.0747692072938122,-0.3192797741664761
1526330814335,-0.9423361562523844,0.07428091859311792,-0.3124437323567557
1526330814351,-0.9428244449530787,0.08746471351186358,-0.3070725566491186
1526330814367,-0.9408712901503016,0.09625391012436069,-0.320744640268559
1526330814383,-0.9540550850690472,0.09430075532158355,-0.3134203097581447
1526330814400,-0.9652857251850158,0.07574578469520077,-0.31830319676508756
1526330814416,-0.9618677042801558,0.06500343327992653,-0.32513923857480753
1526330814432,-0.9711451895933472,0.0689097428854808,-0.3192797741664761
1526330814448,-0.96919203479057,0.06646829938200938,-0.3178149080643933
1526330814464,-0.9545433737697415,0.0689097428854808,-0.32416266117341896
1526330814480,-0.9530785076676587,0.06793316548409223,-0.317326619363699
1526330814496,-0.9472190432593273,0.0806286717021436,-0.31146715495536714
1526330814512,-0.9545433737697415,0.09381246662088927,-0.3031662470435643
1526330814528,-0.9462424658579387,0.089906157015335,-0.317326619363699
1526330814544,-0.9457541771572444,0.07379262989242363,-0.30853742275120144
1526330814560,-0.9486839093614101,0.06060883497367797,-0.3285572594796675
1526330814576,-0.9364766918440526,0.06158541237506654,-0.3041428244449529
1526330814592,-0.9384298466468302,0.06793316548409223,-0.30853742275120144
1526330814608,-0.9481956206607158,0.07965209430075504,-0.31293202105745044
1526330814625,-0.9457541771572444,0.0776989394979779,-0.320744640268559
1526330814642,-0.9438010223544673,0.06842145418478651,-0.3319752803845275
1526330814658,-0.9477073319600215,0.07232776379034078,-0.32465094987411325
1526330814674,-0.9701686121919586,0.05621423666742942,-0.3197680628671704
1526330814690,-0.9638208590829329,0.04693675135423803,-0.3178149080643933
1526330814706,-0.9545433737697415,0.06549172198062081,-0.3090257114518957
1526330814722,-0.9477073319600215,0.06451514457923224,-0.3446707866025789
1526330814738,-0.9291523613336383,0.06060883497367797,-0.3178149080643933
1526330814754,-0.946730754558633,0.0689097428854808,-0.3012130922407872
1526330814770,-0.9511253528648815,0.06451514457923224,-0.3197680628671704
1526330814786,-0.9560082398718244,0.06646829938200938,-0.3358815899900818
1526330814802,-0.9374532692454411,0.05865568017090084,-0.33099870298313894
1526330814818,-0.9491721980621044,0.04596017395284946,-0.3266041046768904
1526330814834,-0.946730754558633,0.051819638361180864,-0.3319752803845275
1526330814850,-0.9516136415655758,0.055725947966735134,-0.3412527656977189
1526330814866,-0.9506370641641873,0.04986648355840373,-0.33636987869077606
1526330814883,-0.9413595788509959,0.061097123674372256,-0.3324635690852218
1526330814899,-0.9374532692454411,0.05621423666742942,-0.3344167238879989
1526330814915,-0.932082093537804,0.053772793163958,-0.313908598458839
1526330814931,-0.9369649805447469,0.06012054627298369,-0.32806897077897323
1526330814947,-0.9418478675516901,0.07135118638895221,-0.313908598458839
1526330814963,-0.943312733653773,0.06353856717784367,-0.2982833600366215
1526330814979,-0.9301289387350269,0.053284504463263715,-0.34271763179980175
1526330814995,-0.9384298466468302,0.049378194857709445,-0.3285572594796675
1526330815011,-0.9350118257419697,0.05767910276951227,-0.3324635690852218
1526330815027,-0.9403830014496073,0.044007019150072324,-0.3266041046768904
1526330815043,-0.9477073319600215,0.03814755474174092,-0.3168383306630047
1526330815059,-0.9408712901503016,0.04498359655146089,-0.33099870298313894
1526330815075,-0.9438010223544673,0.0567025253681237,-0.33636987869077606
1526330815091,-0.943312733653773,0.045471885252155175,-0.34515907530327317
1526330815107,-0.9379415579461359,0.03424124513618665,-0.34564736400396745
1526330815124,-0.9403830014496073,0.049378194857709445,-0.33929961089494176
1526330815140,-0.9525902189669644,0.04498359655146089,-0.3349050125886932
1526330815156,-0.9506370641641873,0.06402685587853796,-0.32513923857480753
1526330815172,-0.9462424658579387,0.06402685587853796,-0.33051041428244465
1526330815188,-0.9462424658579387,0.030823224231326662,-0.34320592050049603
1526330815204,-0.9457541771572444,0.041565575646600905,-0.34222934309910746
1526330815220,-0.9457541771572444,0.04058899824521234,-0.34027618829633033
1526330815236,-0.9525902189669644,0.04840161745632088,-0.34564736400396745
1526330815252,-0.9472190432593273,0.053284504463263715,-0.34320592050049603
1526330815269,-0.9413595788509959,0.047913328755626594,-0.33344014648661036
1526330815285,-0.9379415579461359,0.055725947966735134,-0.3495536736095217
1526330815301,-0.9457541771572444,0.0386358434424352,-0.3324635690852218
1526330815317,-0.9491721980621044,0.02789349202716096,-0.3417410543984132
1526330815333,-0.9540550850690472,0.028381780727855244,-0.37885099565117875
1526330815349,-0.943312733653773,0.022034027618829555,-0.3417410543984132
1526330815365,-0.946730754558633,0.02642862592507811,-0.31586175326161614
1526330815382,-0.9364766918440526,0.04498359655146089,-0.3412527656977189
1526330815398,-0.9438010223544673,0.0508430609597923,-0.33929961089494176
1526330815414,-0.9452658884565501,0.039124132143129486,-0.3417410543984132
1526330815430,-0.9486839093614101,0.026916914625772392,-0.3471122301060503
1526330815446,-0.9491721980621044,0.04205386434729519,-0.3446707866025789
1526330815462,-0.9403830014496073,0.04596017395284946,-0.3417410543984132
1526330815478,-0.9345235370412754,0.03814755474174092,-0.34271763179980175
1526330815494,-0.9359884031433583,0.044007019150072324,-0.34027618829633033
1526330815510,-0.939894712748913,0.028870069428549527,-0.34857709620813315
1526330815526,-0.946730754558633,0.02398718242160669,-0.3529716945143817
1526330815542,-0.9379415579461359,0.03033493553063238,-0.33099870298313894
1526330815558,-0.9428244449530787,0.04596017395284946,-0.3295338368810561
1526330815574,-0.9413595788509959,0.0386358434424352,-0.320744640268559
1526330815590,-0.9379415579461359,0.05133134966048658,-0.3505302510109103
1526330815607,-0.9296406500343326,0.0357061112382695,-0.3559014267185474
1526330815623,-0.932082093537804,0.02642862592507811,-0.35150682841229886
1526330815639,-0.9340352483405812,0.011779964904249596,-0.3505302510109103
1526330815655,-0.9462424658579387,0.019104295414663852,-0.34027618829633033
1526330815671,-0.9477073319600215,0.036194399938963784,-0.32172121766994755
1526330815687,-0.9457541771572444,0.04693675135423803,-0.3471122301060503
1526330815703,-0.9452658884565501,0.05621423666742942,-0.34222934309910746
1526330815719,-0.9330586709391926,0.03961242084382377,-0.3505302510109103
1526330815735,-0.9364766918440526,0.035217822537575216,-0.3446707866025789
1526330815751,-0.9418478675516901,0.0357061112382695,-0.3412527656977189
1526330815767,-0.9296406500343326,0.04351873044937804,-0.33636987869077606
1526330815783,-0.9394064240482187,0.0327763790341038,-0.32806897077897323
1526330815799,-0.943312733653773,0.040100709544518054,-0.3476005188067446
1526330815815,-0.9374532692454411,0.040100709544518054,-0.346623941405356
1526330815832,-0.9413595788509959,0.039124132143129486,-0.3446707866025789
1526330815848,-0.9413595788509959,0.02154573891813527,-0.3373464560921646
1526330815864,-0.935500114442664,0.02398718242160669,-0.346623941405356
1526330815880,-0.9384298466468302,0.02789349202716096,-0.33344014648661036
1526330815896,-0.9408712901503016,0.031311512932020946,-0.32416266117341896
1526330815913,-0.9374532692454411,0.029846646829938095,-0.34515907530327317
1526330815929,-0.9379415579461359,0.036194399938963784,-0.34906538490882744
1526330815945,-0.9428244449530787,0.020569161516746703,-0.33002212558175037
1526330815961,-0.9364766918440526,0.03424124513618665,-0.350041962310216
1526330815977,-0.9423361562523844,0.040100709544518054,-0.3388113221942475
1526330815993,-0.9403830014496073,0.044007019150072324,-0.3471122301060503
1526330816009,-0.9271992065308612,0.04693675135423803,-0.35736629282063026
1526330816025,-0.939894712748913,0.04351873044937804,-0.34027618829633033
1526330816041,-0.9340352483405812,0.03179980163271523,-0.34613565270466173
1526330816057,-0.946730754558633,0.0357061112382695,-0.3529716945143817
1526330816073,-0.9438010223544673,0.028381780727855244,-0.35443656061646456
1526330816089,-0.943312733653773,0.017151140611886717,-0.35785458152132454
1526330816106,-0.9364766918440526,0.018127718013275285,-0.3559014267185474
1526330816122,-0.9291523613336383,0.03668268863965807,-0.34027618829633033
1526330816138,-0.9472190432593273,0.0327763790341038,-0.3388113221942475
1526330816154,-0.9271992065308612,0.028870069428549527,-0.3261158159761961
1526330816170,-0.9403830014496073,0.02935835812924381,-0.35834287022201883
1526330816186,-0.9403830014496073,0.026916914625772392,-0.34027618829633033
1526330816202,-0.9384298466468302,0.031311512932020946,-0.3495536736095217
1526330816218,-0.932082093537804,0.02789349202716096,-0.3529716945143817
1526330816234,-0.9408712901503016,0.03668268863965807,-0.35150682841229886
1526330816250,-0.9384298466468302,0.02398718242160669,-0.346623941405356
1526330816266,-0.9350118257419697,0.03424124513618665,-0.3524834058136874
1526330816282,-0.9315938048371097,0.030823224231326662,-0.3476005188067446
1526330816298,-0.9364766918440526,0.03033493553063238,-0.3593194476234074
1526330816315,-0.9296406500343326,0.022034027618829555,-0.34564736400396745
1526330816331,-0.9325703822384983,0.022034027618829555,-0.3617608911268788
1526330816347,-0.9384298466468302,0.028381780727855244,-0.3651789120317388
1526330816363,-0.9311055161364155,0.03033493553063238,-0.36127260242618453
1526330816379,-0.9369649805447469,0.037659266041046635,-0.35834287022201883
1526330816395,-0.9418478675516901,0.02935835812924381,-0.3524834058136874
1526330816411,-0.9257343404287783,0.01861600671396957,-0.3505302510109103
1526330816427,-0.9369649805447469,0.020569161516746703,-0.3588311589227131
1526330816443,-0.9345235370412754,0.015686274509803866,-0.3681086442359045
1526330816459,-0.9306172274357212,0.02398718242160669,-0.3559014267185474
1526330816475,-0.9276874952315555,0.02642862592507811,-0.36127260242618453
1526330816491,-0.9374532692454411,0.03814755474174092,-0.3529716945143817
1526330816507,-0.9325703822384983,0.022034027618829555,-0.3539482719157703
1526330816523,-0.925246051728084,0.017151140611886717,-0.3554131380178531
1526330816540,-0.9193865873197526,0.013244831006332447,-0.36078431372549025
1526330816556,-0.9242694743266955,0.03326466773479808,-0.3627374685282674
1526330816572,-0.9296406500343326,0.009338521400778177,-0.35101853971160457
1526330816588,-0.9364766918440526,0.028381780727855244,-0.3764095521477073
1526330816605,-0.9306172274357212,0.0327763790341038,-0.3739681086442359
1526330816621,-0.9242694743266955,0.0386358434424352,-0.34222934309910746
1526330816637,-0.9213397421225298,0.020569161516746703,-0.3441824979018846
1526330816653,-0.928664072632944,0.025940337224383825,-0.36664377813382165
1526330816669,-0.9257343404287783,0.021057450217440987,-0.36420233463035023
1526330816685,-0.9223163195239183,0.016662851911192433,-0.36713206683451594
1526330816701,-0.9242694743266955,0.004943923094529623,-0.35785458152132454
1526330816717,-0.9267109178301669,0.01617456321049815,-0.3715266651407645
1526330816733,-0.9359884031433583,0.01226825360494388,-0.3739681086442359
1526330816749,-0.9364766918440526,0.004943923094529623,-0.3768978408484016
1526330816765,-0.9452658884565501,0.011779964904249596,-0.36908522163729307
1526330816781,-0.9413595788509959,0.015197985809109582,-0.3505302510109103
1526330816797,-0.9306172274357212,0.007385366598001042,-0.38422217135881587
1526330816814,-0.9242694743266955,-9.15541313801782E-4,-0.38764019226367585
1526330816830,-0.9237811856260012,0.006897077897306758,-0.38715190356298157
1526330816846,-0.9232928969253069,0.006408789196612474,-0.39056992446784156
1526330816862,-0.9164568551155869,0.01617456321049815,-0.35443656061646456
1526330816878,-0.9203631647211412,0.023498893720912406,-0.38226901655603873
1526330816894,-0.9223163195239183,0.03424124513618665,-0.38422217135881587
1526330816910,-0.9154802777141984,0.005920500495918191,-0.37836270695048446
1526330816926,-0.925246051728084,0.004455634393835339,-0.38422217135881587
1526330816942,-0.9164568551155869,-0.003356984817273201,-0.3768978408484016
1526330816958,-0.9267109178301669,0.0020141908903639205,-0.38422217135881587
1526330816974,-0.9198748760204469,-0.0018921187151903496,-0.3832455939574273
1526330816990,-0.9193865873197526,-0.008239871824216038,-0.3832455939574273
1526330817006,-0.9223163195239183,0.0039673456931410556,-0.3768978408484016
1526330817023,-0.9154802777141984,0.0039673456931410556,-0.3954528114747844
1526330817039,-0.9213397421225298,0.0020141908903639205,-0.39740596627756153
1526330817055,-0.9213397421225298,5.493247882810692E-4,-0.3764095521477073
1526330817071,-0.925246051728084,-0.010193026626993174,-0.40033569848172723
1526330817087,-0.9198748760204469,-0.00579842832074462,-0.3954528114747844
1526330817103,-0.9213397421225298,5.493247882810692E-4,-0.36908522163729307
1526330817119,-0.9247577630273898,-0.004821850919356052,-0.3866636148622873
1526330817135,-0.8969253070878156,-0.00579842832074462,-0.4096131837949186
1526330817151,-0.9164568551155869,-0.011657892729076025,-0.3944762340733958
1526330817167,-0.9247577630273898,-0.006775005722133187,-0.38812848096437014
1526330817183,-0.9188982986190584,0.0020141908903639205,-0.4130312046997786
1526330817200,-0.939894712748913,-0.0038452735179674846,-0.41791409170672145
1526330817216,-0.9188982986190584,-0.011657892729076025,-0.39056992446784156
1526330817232,-0.9242694743266955,-0.01995880064087885,-0.42035553521019287
1526330817248,-0.9223163195239183,-0.02288853284504455,-0.4169375143053329
1526330817264,-0.9262226291294726,-0.00970473792629889,-0.4047302967879758
1526330817280,-0.9193865873197526,0.01226825360494388,-0.42133211261158143
1526330817296,-0.9169451438162812,0.002990768291752488,-0.4018005645838101
1526330817312,-0.9198748760204469,-0.03314259555962451,-0.41547264820325003
1526330817329,-0.9164568551155869,-0.035095750362401645,-0.41205462729839004
1526330817345,-0.925246051728084,-0.026306553749904538,-0.39935912108033866
1526330817361,-0.9179217212176698,-0.019470511940184565,-0.4320744640268557
1526330817377,-0.9145037003128098,-0.023376821545738835,-0.41156633859769576
1526330817393,-0.9037613488975356,-0.02777141985198739,-0.4101014724956129
1526330817409,-0.9086442359044784,-0.01751735713740743,-0.4076600289921415
1526330817425,-0.8881361104753185,0.005432211795223907,-0.4110780498970015
1526330817441,-0.8910658426794842,0.002990768291752488,-0.39740596627756153
1526330817457,-0.8935072861829556,0.007385366598001042,-0.40570687418936435
1526330817473,-0.8871595330739299,0.0015259021896696368,-0.3886167696650644
1526330817489,-0.8837415121690699,0.02008087281605242,-0.4164492256046386
1526330817505,-0.8910658426794842,0.015686274509803866,-0.4101014724956129
1526330817521,-0.8876478217746242,0.01226825360494388,-0.41547264820325003
1526330817538,-0.9052262149996184,0.0020141908903639205,-0.40033569848172723
1526330817554,-0.8974135957885099,0.008850232700083893,-0.4018005645838101
1526330817570,-0.8876478217746242,0.004943923094529623,-0.4140077821011672
1526330817586,-0.88032349126421,0.011779964904249596,-0.44916456855115605
1526330817602,-0.8847180895704585,0.010315098802166744,-0.42572671091783
1526330817618,-0.8817883573662928,0.006897077897306758,-0.4252384222171357
1526330817634,-0.8832532234683756,0.015686274509803866,-0.4306095979247728
1526330817650,-0.8930189974822613,0.004943923094529623,-0.43988708323796466
1526330817666,-0.8837415121690699,0.004943923094529623,-0.46381322957198456
1526330817682,-0.9101091020065613,-0.0014038300144960658,-0.4589303425650417
1526330817698,-0.8866712443732356,-0.009216449225604606,-0.44037537193865894
1526330817714,-0.8939955748836499,-0.002868696116578917,-0.44281681544213036
1526330817730,-0.8837415121690699,-0.013122758831158876,-0.4750438696879531
1526330817747,-0.8837415121690699,-0.028259708552681673,-0.4511177233539332
1526330817763,-0.8881361104753185,-0.027283131151293105,-0.4379339284351875
1526330817779,-0.8671396963454643,-0.01898222323949028,-0.4843213550011445
1526330817795,-0.8900892652780956,-0.024841687647821686,-0.47992675669489593
1526330817811,-0.88032349126421,-0.023376821545738835,-0.456000610360876
1526330817827,-0.8773937590600442,-0.03607232776379021,-0.459418631265736
1526330817844,-0.8646982528419929,-0.04339665827420447,-0.45795376516365316
1526330817860,-0.8603036545357443,-0.041443503471427334,-0.4779736018921188
1526330817876,-0.8681162737468529,-0.05609216449225585,-0.4779736018921188
1526330817892,-0.86665140764477,-0.06390478370336483,-0.498970016021973
1526330817908,-0.8773937590600442,-0.07122911421377909,-0.5009231708247501
1526330817924,-0.8822766460669871,-0.07513542381933336,-0.5136186770428015
1526330817940,-0.8671396963454643,-0.06536964980544768,-0.49750514991989014
1526330817956,-0.8617685206378272,-0.05023270008392444,-0.5004348821240558
1526330817972,-0.8637216754406043,-0.05365072098878443,-0.5185015640497443
1526330817988,-0.87006942854963,-0.06829938200961339,-0.5160601205462729
1526330818004,-0.8715342946517128,-0.05999847409781012,-0.5175249866483558
1526330818020,-0.8739757381551843,-0.053162432288090145,-0.5004348821240558
1526330818036,-0.8651865415426871,-0.07513542381933336,-0.5253376058594643
1526330818053,-0.8534676127260243,-0.05413900968947871,-0.5258258945601586
1526330818069,-0.8627450980392157,-0.05999847409781012,-0.5277790493629357
1526330818085,-0.8651865415426871,-0.058533607995727266,-0.5253376058594643
1526330818101,-0.8485847257190815,-0.0707408255130848,-0.5033646143282215
1526330818117,-0.8539559014267186,-0.06292820630197626,-0.5326619363698786
1526330818133,-0.8490730144197758,-0.05023270008392444,-0.5268024719615472
1526330818149,-0.8593270771343557,-0.027283131151293105,-0.5233844510566872
1526330818165,-0.8603036545357443,-0.020447089341573133,-0.5326619363698786
1526330818181,-0.8544441901274129,-0.026306553749904538,-0.5297322041657129
1526330818197,-0.8476081483176929,-0.03167772945754166,-0.5482871747920957
1526330818213,-0.8466315709163044,-0.04095521477073305,-0.5536583504997328
1526330818229,-0.8397955291065844,-0.042908369573510186,-0.5258258945601586
1526330818246,-0.8417486839093615,-0.04779125658045302,-0.5370565346761271
1526330818262,-0.833936064698253,-0.05413900968947871,-0.5424277103837642
1526330818278,-0.844190127412833,-0.05560387579156156,-0.5595178149080642
1526330818294,-0.8378423743038073,-0.05999847409781012,-0.5458457312886242
1526330818310,-0.8388189517051958,-0.04876783398184159,-0.5414511329823757
1526330818326,-0.8422369726100558,-0.041443503471427334,-0.5648889906157017
1526330818342,-0.8319829098954759,-0.0575570305943387,-0.5424277103837642
1526330818358,-0.8412603952086672,-0.057068741893644415,-0.5243610284580758
1526330818374,-0.8495613031204701,-0.03607232776379021,-0.5614709697108413
1526330818390,-0.8524910353246358,-0.04046692607003877,-0.5678187228198674
1526330818406,-0.8480964370183872,-0.04486152437628732,-0.5658655680170903
1526330818422,-0.837354085603113,-0.062439917601281536,-0.5580529488059813
1526330818439,-0.8393072404058901,-0.06585793850614197,-0.5458457312886242
1526330818455,-0.8275883115892273,-0.05218585488670158,-0.54535744258793
1526330818471,-0.830518043793393,-0.033630884260318794,-0.5424277103837642
1526330818487,-0.8290531776913102,-0.04095521477073305,-0.5526817730983442
1526330818503,-0.820263981078813,-0.04876783398184159,-0.5639124132143132
1526330818519,-0.8319829098954759,-0.035095750362401645,-0.5512169069962614
1526330818535,-0.8227054245822845,-0.035095750362401645,-0.5565880827038985
1526330818551,-0.8217288471808959,-0.03314259555962451,-0.5375448233768214
1526330818568,-0.8314946211947816,-0.02777141985198739,-0.5580529488059813
1526330818584,-0.8275883115892273,-0.04437323567559304,-0.5741664759288931
1526330818600,-0.8227054245822845,-0.04095521477073305,-0.5556115053025099
1526330818616,-0.8334477759975587,-0.04632639047837017,-0.5473105973907071
1526330818632,-0.8266117341878387,-0.0575570305943387,-0.5380331120775157
1526330818648,-0.827100022888533,-0.033630884260318794,-0.5399862668802928
1526330818664,-0.8246585793850616,-0.02386511024643312,-0.5526817730983442
1526330818680,-0.8417486839093615,-0.03607232776379021,-0.5614709697108413
1526330818696,-0.8368657969024187,-0.054627298390172996,-0.5648889906157017
1526330818712,-0.8388189517051958,-0.06927595941100195,-0.5639124132143132
1526330818728,-0.8217288471808959,-0.06536964980544768,-0.5409628442816814
1526330818744,-0.8290531776913102,-0.0604867627985044,-0.5565880827038985
1526330818761,-0.8256351567864502,-0.04388494697489875,-0.52826733806363
1526330818777,-0.830518043793393,-0.05023270008392444,-0.53510337987335
1526330818793,-0.830518043793393,-0.04583810177767589,-0.5512169069962614
1526330818809,-0.8285648889906159,-0.04437323567559304,-0.5434042877851528
1526330818825,-0.8290531776913102,-0.05267414358739586,-0.5536583504997328
1526330818841,-0.8212405584802016,-0.04388494697489875,-0.53168535896849
1526330818857,-0.8217288471808959,-0.04974441138323016,-0.5302204928664072
1526330818873,-0.8256351567864502,-0.04388494697489875,-0.5321736476691843
1526330818889,-0.8300297550926987,-0.05413900968947871,-0.5375448233768214
1526330818905,-0.8197756923781188,-0.07415884641794479,-0.52143129625391
1526330818921,-0.8344243533989473,-0.07757686732280478,-0.5448691538872357
1526330818937,-0.8266117341878387,-0.08392462043183047,-0.5370565346761271
1526330818954,-0.8275883115892273,-0.05999847409781012,-0.5258258945601586
1526330818970,-0.8412603952086672,-0.05609216449225585,-0.5292439154650186
1526330818986,-0.8432135500114444,-0.0604867627985044,-0.5595178149080642
1526330819002,-0.8485847257190815,-0.06732280460822482,-0.5468223086900128
1526330819018,-0.8510261692225529,-0.07318226901655622,-0.5268024719615472
1526330819034,-0.8432135500114444,-0.07904173342488763,-0.5121538109407187
1526330819050,-0.8437018387121387,-0.08050659952697048,-0.5009231708247501
1526330819066,-0.8646982528419929,-0.07318226901655622,-0.5150835431448844
1526330819082,-0.8505378805218586,-0.06976424811169624,-0.505806057831693
1526330819098,-0.8524910353246358,-0.07122911421377909,-0.5155718318455786
1526330819114,-0.8539559014267186,-0.0858777752346076,-0.52143129625391
1526330819131,-0.8549324788281072,-0.08197146562905333,-0.5331502250705729
1526330819147,-0.8534676127260243,-0.05560387579156156,-0.5077592126344701
1526330819163,-0.85639734493019,-0.05218585488670158,-0.5136186770428015
1526330819179,-0.8603036545357443,-0.06634622720683625,-0.5141069657434958
1526330819195,-0.8651865415426871,-0.06634622720683625,-0.5033646143282215
1526330819211,-0.8705577172503243,-0.062439917601281536,-0.492133974212253
1526330819227,-0.8656748302433814,-0.07415884641794479,-0.4931105516136416
1526330819243,-0.8744640268558785,-0.07757686732280478,-0.48480964370183877
1526330819259,-0.87690547035935,-0.062439917601281536,-0.4867627985046159
1526330819276,-0.8783703364614328,-0.05413900968947871,-0.47650873579003594
1526330819292,-0.8715342946517128,-0.0575570305943387,-0.4784618905928131
1526330819308,-0.8690928511482414,-0.07464713511863907,-0.4809033340962845
1526330819324,-0.8705577172503243,-0.06732280460822482,-0.459418631265736
1526330819340,-0.8822766460669871,-0.05413900968947871,-0.4569771877622646
1526330819356,-0.8744640268558785,-0.04779125658045302,-0.4574654764629589
1526330819372,-0.8646982528419929,-0.041443503471427334,-0.4599069199664303
1526330819388,-0.8690928511482414,-0.03070115205615309,-0.4745555809872588
1526330819404,-0.8705577172503243,-0.04339665827420447,-0.4589303425650417
1526330819420,-0.8822766460669871,-0.04437323567559304,-0.46430151827267885
1526330819436,-0.8822766460669871,-0.05267414358739586,-0.4442816815442132
1526330819452,-0.889112687876707,-0.03411917296101308,-0.44574654764629607
1526330819469,-0.88032349126421,-0.03607232776379021,-0.44330510414282465
1526330819485,-0.8759288929579614,-0.03997863736934448,-0.4530708781567103
1526330819501,-0.8871595330739299,-0.04876783398184159,-0.43988708323796466
1526330819517,-0.8979018844892042,-0.04486152437628732,-0.4408636606393532
1526330819533,-0.8944838635843442,-0.04583810177767589,-0.4476997024490732
1526330819549,-0.8974135957885099,-0.06390478370336483,-0.44037537193865894
1526330819565,-0.8969253070878156,-0.04974441138323016,-0.43646906233310423
1526330819581,-0.892530708781567,-0.03607232776379021,-0.44623483634699035
1526330819597,-0.8856946669718471,-0.042908369573510186,-0.45258258945601604
1526330819613,-0.892530708781567,-0.04339665827420447,-0.4350041962310214
1526330819629,-0.9018081940947584,-0.05511558709086728,-0.45160601205462747
1526330819645,-0.9086442359044784,-0.041443503471427334,-0.4657663843747617
1526330819662,-0.9208514534218355,-0.03167772945754166,-0.45502403295948746
1526330819678,-0.9164568551155869,-0.031189440756847375,-0.4418402380407418
1526330819694,-0.9179217212176698,-0.041443503471427334,-0.4501411459525446
1526330819710,-0.9203631647211412,-0.033630884260318794,-0.4379339284351875
1526330819726,-0.9052262149996184,-0.042908369573510186,-0.41791409170672145
1526330819742,-0.9076676585030898,-0.027283131151293105,-0.42963302052338426
1526330819758,-0.9140154116121155,-0.020447089341573133,-0.4066834515907529
1526330819774,-0.9208514534218355,-0.030212863355458808,-0.41205462729839004
1526330819791,-0.9081559472037841,-0.019470511940184565,-0.4140077821011672
1526330819807,-0.9164568551155869,-0.013122758831158876,-0.4076600289921415
1526330819823,-0.9169451438162812,-0.016540779736018862,-0.4066834515907529
1526330819839,-0.9154802777141984,-0.016540779736018862,-0.4140077821011672
1526330819855,-0.9154802777141984,-0.024841687647821686,-0.3900816357671473
1526330819871,-0.9198748760204469,-0.01995880064087885,-0.38422217135881587
1526330819887,-0.9262226291294726,-0.02532997634851597,-0.39349965667200726
1526330819903,-0.9276874952315555,-0.01751735713740743,-0.39642938887617296
1526330819919,-0.9306172274357212,-0.02386511024643312,-0.35785458152132454
1526330819935,-0.9306172274357212,-0.03411917296101308,-0.3749446860456245
1526330819951,-0.932082093537804,-0.020935378042267416,-0.36078431372549025
1526330819967,-0.925246051728084,-0.00970473792629889,-0.3622491798275731
1526330819984,-0.9149919890135041,-0.005310139620050336,-0.35150682841229886
1526330820000,-0.9047379262989241,-0.0014038300144960658,-0.35101853971160457
1526330820016,-0.9091325246051727,0.008850232700083893,-0.3734798199435416
1526330820032,-0.9101091020065613,0.019104295414663852,-0.3720149538414588
1526330820048,-0.9184100099183641,0.014221408407721015,-0.38178072785534445
1526330820064,-0.9296406500343326,-9.15541313801782E-4,-0.3837338826581216
1526330820080,-0.9306172274357212,-0.007751583123521755,-0.37006179903868164
1526330820096,-0.9496604867627987,-0.012634470130464592,-0.3412527656977189
1526330820112,-0.9374532692454411,0.0039673456931410556,-0.3778744182497902
1526330820128,-0.9350118257419697,0.004943923094529623,-0.36908522163729307
1526330820144,-0.9340352483405812,0.011291676203555312,-0.3266041046768904
1526330820161,-0.9413595788509959,0.019104295414663852,-0.36908522163729307
1526330820177,-0.9384298466468302,0.028870069428549527,-0.37543297474631876
1526330820193,-0.9472190432593273,0.029846646829938095,-0.3524834058136874
1526330820209,-0.9511253528648815,0.02008087281605242,-0.35443656061646456
1526330820225,-0.953566796368353,0.01617456321049815,-0.36420233463035023
1526330820241,-0.9521019302662701,0.0357061112382695,-0.3524834058136874
1526330820257,-0.9496604867627987,0.04693675135423803,-0.3412527656977189
1526330820273,-0.9428244449530787,0.06012054627298369,-0.356878004119936
1526330820289,-0.9379415579461359,0.053284504463263715,-0.34564736400396745
1526330820305,-0.9325703822384983,0.05865568017090084,-0.3373464560921646
1526330820321,-0.9418478675516901,0.0689097428854808,-0.36127260242618453
1526330820337,-0.9457541771572444,0.06549172198062081,-0.3417410543984132
1526330820354,-0.9560082398718244,0.0776989394979779,-0.3143968871595333
1526330820370,-0.9472190432593273,0.07672236209658934,-0.3295338368810561
1526330820386,-0.9423361562523844,0.08746471351186358,-0.33002212558175037
1526330820402,-0.9438010223544673,0.089906157015335,-0.3090257114518957
1526330820418,-0.932082093537804,0.09527733272297212,-0.3124437323567557
1526330820434,-0.9511253528648815,0.07672236209658934,-0.3036545357442586
1526330820450,-0.9481956206607158,0.07525749599450648,-0.29291218432898436
1526330820466,-0.9652857251850158,0.08746471351186358,-0.2948653391317615
1526330820482,-0.9477073319600215,0.09527733272297212,-0.2880292973220415
1526330820499,-0.946730754558633,0.10992599374380063,-0.2670328831921873
1526330820515,-0.9359884031433583,0.13043411917296144,-0.26947432669565874
1526330820531,-0.9350118257419697,0.1343404287785157,-0.2616617074845502
1526330820547,-0.9311055161364155,0.12945754177157287,-0.27875181200885013
1526330820563,-0.9413595788509959,0.13482871747921,-0.26654459449149304
1526330820579,-0.9428244449530787,0.14215304798962425,-0.2885175860227358
1526330820595,-0.9413595788509959,0.1406881818875414,-0.2641031509880216
1526330820611,-0.946730754558633,0.1377584496833757,-0.26263828488593877
1526330820627,-0.9418478675516901,0.14605935759517852,-0.25726710917830165
1526330820643,-0.9359884031433583,0.13873502708476426,-0.26263828488593877
1526330820659,-0.9301289387350269,0.1377584496833757,-0.2548256656748302
1526330820675,-0.9457541771572444,0.14703593499656709,-0.24457160296025027
1526330820692,-0.9594262607766844,0.15728999771114704,-0.25433737697413594
1526330820708,-0.9403830014496073,0.14752422369726137,-0.2582436865796902
1526330820724,-0.9428244449530787,0.14898908979934422,-0.2592202639810788
1526330820740,-0.9511253528648815,0.1343404287785157,-0.23089951934081032
1526330820756,-0.953566796368353,0.15045395590142707,-0.2680094605935759
1526330820772,-0.9584496833752958,0.1582665751125356,-0.24505989166094455
1526330820788,-0.9550316624704358,0.16656748302433844,-0.23871213855191886
1526330820804,-0.9633325703822386,0.1553368429083699,-0.24310673685816742
1526330820820,-0.9618677042801558,0.16021972991531275,-0.25775539787899593
1526330820836,-0.9618677042801558,0.1826810101472498,-0.24310673685816742
1526330820852,-0.9643091477836272,0.167544060425727,-0.2435950255588617
1526330820868,-0.9560082398718244,0.16217288471808988,-0.25726710917830165
1526330820885,-0.9677271686884872,0.17779812314030696,-0.23285267414358746
1526330820901,-0.96919203479057,0.1763332570382241,-0.24310673685816742
1526330820917,-0.9701686121919586,0.16217288471808988,-0.2528725108720531
1526330820933,-0.9750514991989014,0.17535667963683554,-0.2533607995727474
1526330820949,-0.9711451895933472,0.18658731975280407,-0.22943465323872747
1526330820965,-0.9589379720759901,0.19000534065766406,-0.24505989166094455
1526330820981,-0.9599145494773786,0.18756389715419264,-0.24115358205539028
1526330820997,-0.9613794155794615,0.1973296711680783,-0.22406347753109035
1526330821013,-0.9511253528648815,0.18072785534447267,-0.23236438544289317
1526330821029,-0.9584496833752958,0.1763332570382241,-0.2289463645380332
1526330821045,-0.9462424658579387,0.1919584954604412,-0.23627069504844744
1526330821062,-0.9584496833752958,0.19684138246738403,-0.22748149843595034
1526330821078,-0.9525902189669644,0.18805218585488692,-0.22748149843595034
1526330821094,-0.9687037460898758,0.1919584954604412,-0.23041123064011604
1526330821110,-0.97602807660029,0.17291523613336413,-0.2255283436331732
1526330821126,-0.9711451895933472,0.1826810101472498,-0.2225986114290075
1526330821142,-0.9628442816815443,0.1890287632562755,-0.22748149843595034
1526330821158,-0.9647974364843215,0.1856107423514155,-0.22211032272831321
1526330821174,-0.9633325703822386,0.1890287632562755,-0.23089951934081032
1526330821190,-0.9569848172732129,0.20025940337224402,-0.22601663233386748
1526330821206,-0.9647974364843215,0.18316929884794408,-0.23236438544289317
1526330821223,-0.9643091477836272,0.18658731975280407,-0.22796978713664462
1526330821239,-0.9677271686884872,0.19977111467154973,-0.22992294193942175
1526330821255,-0.9584496833752958,0.21441977569237824,-0.20941481651026184
1526330821271,-0.9618677042801558,0.2129549095902954,-0.2108796826123447
1526330821287,-0.9496604867627987,0.20025940337224402,-0.24701304646372169
1526330821303,-0.9584496833752958,0.19684138246738403,-0.23675898374914173
1526330821319,-0.9618677042801558,0.1768215457389184,-0.18597695887693577
1526330821335,-0.9677271686884872,0.1919584954604412,-0.21185626001373326
1526330821351,-0.9560082398718244,0.20123598077363258,-0.22406347753109035
1526330821367,-0.9604028381780729,0.19635309376668975,-0.2191805905241475
1526330821383,-0.9599145494773786,0.19977111467154973,-0.21136797131303897
1526330821400,-0.9638208590829329,0.20807202258335256,-0.2138094148165104
1526330821416,-0.9647974364843215,0.20025940337224402,-0.22064545662623036
1526330821432,-0.9604028381780729,0.20221255817502115,-0.2191805905241475
1526330821448,-0.9516136415655758,0.19635309376668975,-0.2167391470206761
1526330821464,-0.9574731059739072,0.19537651636530118,-0.2108796826123447
1526330821480,-0.9628442816815443,0.20758373388265827,-0.21527428091859324
1526330821496,-0.9652857251850158,0.19342336156252404,-0.21576256961928753
1526330821512,-0.96577401388571,0.1943999389639126,-0.22113374532692465
1526330821528,-0.9672388799877929,0.19537651636530118,-0.19183642328526762
1526330821544,-0.9511253528648815,0.19977111467154973,-0.21722743572137038
1526330821560,-0.953566796368353,0.21100175478751826,-0.21185626001373326
1526330821576,-0.9560082398718244,0.22027924010070965,-0.204531929503319
1526330821593,-0.9564965285725187,0.2188143739986268,-0.2138094148165104
1526330821609,-0.9589379720759901,0.20416571297779829,-0.22796978713664462
1526330821625,-0.9662623025864043,0.20514229037918685,-0.22455176623178463
1526330821641,-0.9604028381780729,0.20856031128404684,-0.21722743572137038
1526330821657,-0.9599145494773786,0.20856031128404684,-0.22064545662623036
1526330821673,-0.9628442816815443,0.19537651636530118,-0.21820401312275894
1526330821689,-0.9574731059739072,0.1978179598687726,-0.21820401312275894
1526330821705,-0.9623559929808501,0.21441977569237824,-0.22943465323872747
1526330821721,-0.9618677042801558,0.21686121919584966,-0.22748149843595034
1526330821738,-0.9516136415655758,0.2100251773861297,-0.23382925154497602
1526330821754,-0.9569848172732129,0.20758373388265827,-0.2348058289463646
1526330821770,-0.9579613946746015,0.2100251773861297,-0.22357518883039607
1526330821786,-0.9457541771572444,0.21490806439307253,-0.22064545662623036
1526330821802,-0.9633325703822386,0.21832608529793252,-0.2162508583199818
1526330821818,-0.9516136415655758,0.22662699320973534,-0.2225986114290075
1526330821834,-0.9633325703822386,0.21490806439307253,-0.20550850690470757
1526330821850,-0.9647974364843215,0.21930266269932108,-0.21429770351720467
1526330821866,-0.9628442816815443,0.20758373388265827,-0.24896620126649882
1526330821882,-0.9540550850690472,0.21344319829098968,-0.22601663233386748
1526330821898,-0.9584496833752958,0.20318913557640972,-0.19037155718318477
1526330821914,-0.9486839093614101,0.203677424277104,-0.22162203402761893
1526330821931,-0.9628442816815443,0.19830624856946688,-0.22992294193942175
1526330821947,-0.9545433737697415,0.21197833218890683,-0.2167391470206761
1526330821963,-0.9633325703822386,0.20416571297779829,-0.21429770351720467
1526330821979,-0.9696803234912643,0.20270084687571543,-0.23089951934081032
1526330821995,-0.9662623025864043,0.1885404745555812,-0.2167391470206761
1526330822011,-0.9618677042801558,0.1948882276646069,-0.23334096284428174
1526330822027,-0.9530785076676587,0.20172426947432687,-0.2133211261158161
1526330822043,-0.9560082398718244,0.20318913557640972,-0.21136797131303897
1526330822059,-0.9618677042801558,0.20611886778057542,-0.20257877470054186
1526330822075,-0.9550316624704358,0.21344319829098968,-0.240665293354696
1526330822091,-0.9633325703822386,0.20416571297779829,-0.2162508583199818
1526330822108,-0.9594262607766844,0.1890287632562755,-0.22455176623178463
1526330822124,-0.9545433737697415,0.19977111467154973,-0.21576256961928753
1526330822140,-0.9604028381780729,0.20416571297779829,-0.237247272449836
1526330822156,-0.9545433737697415,0.19830624856946688,-0.2196688792248418
1526330822172,-0.9486839093614101,0.20758373388265827,-0.2133211261158161
1526330822188,-0.9672388799877929,0.19635309376668975,-0.23334096284428174
1526330822204,-0.9584496833752958,0.20318913557640972,-0.21576256961928753
1526330822220,-0.9643091477836272,0.1978179598687726,-0.21576256961928753
1526330822236,-0.9516136415655758,0.19977111467154973,-0.22455176623178463
1526330822252,-0.9516136415655758,0.20123598077363258,-0.22943465323872747
1526330822268,-0.9550316624704358,0.20465400167849257,-0.21283283741512182
1526330822284,-0.9662623025864043,0.20025940337224402,-0.22357518883039607
1526330822301,-0.9550316624704358,0.19977111467154973,-0.22064545662623036
1526330822317,-0.9560082398718244,0.20904859998474112,-0.2167391470206761
1526330822333,-0.9584496833752958,0.19537651636530118,-0.22455176623178463
1526330822349,-0.9613794155794615,0.2066071564812697,-0.21820401312275894
1526330822365,-0.9472190432593273,0.19928282597085545,-0.2284580758373389
1526330822381,-0.9564965285725187,0.1885404745555812,-0.22357518883039607
1526330822397,-0.9516136415655758,0.20123598077363258,-0.2138094148165104
1526330822413,-0.9604028381780729,0.18951705195696977,-0.22455176623178463
1526330822429,-0.9604028381780729,0.18951705195696977,-0.22015716792553608
1526330822446,-0.9491721980621044,0.19537651636530118,-0.25140764476997024
1526330822462,-0.9506370641641873,0.1948882276646069,-0.237247272449836
1526330822478,-0.9496604867627987,0.19537651636530118,-0.21576256961928753
1526330822494,-0.9584496833752958,0.2066071564812697,-0.22015716792553608
1526330822510,-0.9594262607766844,0.19879453727016116,-0.24896620126649882
1526330822526,-0.9643091477836272,0.1943999389639126,-0.22504005493247892
1526330822542,-0.9672388799877929,0.1856107423514155,-0.2196688792248418
1526330822558,-0.9643091477836272,0.19977111467154973,-0.21820401312275894
1526330822574,-0.9696803234912643,0.2066071564812697,-0.2255283436331732
1526330822590,-0.9628442816815443,0.19830624856946688,-0.2318760967421989
1526330822606,-0.9564965285725187,0.1943999389639126,-0.23089951934081032
1526330822622,-0.9521019302662701,0.20318913557640972,-0.2401770046540017
1526330822639,-0.9677271686884872,0.20270084687571543,-0.22992294193942175
1526330822655,-0.9701686121919586,0.19879453727016116,-0.2401770046540017
1526330822671,-0.9628442816815443,0.1978179598687726,-0.24164187075608456
1526330822687,-0.9677271686884872,0.20270084687571543,-0.23285267414358746
1526330822703,-0.9647974364843215,0.18512245365072122,-0.22748149843595034
1526330822719,-0.9584496833752958,0.18658731975280407,-0.2465247577630274
1526330822735,-0.96919203479057,0.17486839093614126,-0.22064545662623036
1526330822751,-0.9618677042801558,0.17438010223544698,-0.21234454871442754
1526330822767,-0.9638208590829329,0.17926298924238981,-0.2348058289463646
1526330822783,-0.9643091477836272,0.1856107423514155,-0.23334096284428174
1526330822799,-0.9662623025864043,0.1948882276646069,-0.2255283436331732
1526330822816,-0.9589379720759901,0.1885404745555812,-0.23627069504844744
1526330822832,-0.9540550850690472,0.17291523613336413,-0.21576256961928753
1526330822848,-0.9628442816815443,0.18219272144655552,-0.22992294193942175
1526330822864,-0.9579613946746015,0.17877470054169553,-0.21722743572137038
1526330822880,-0.9589379720759901,0.167544060425727,-0.22601663233386748
1526330822896,-0.9623559929808501,0.17535667963683554,-0.23675898374914173
1526330822912,-0.9638208590829329,0.18463416495002694,-0.22748149843595034
1526330822928,-0.96919203479057,0.19342336156252404,-0.22601663233386748
1526330822944,-0.9584496833752958,0.18512245365072122,-0.2348058289463646
1526330822960,-0.9647974364843215,0.1797512779430841,-0.22796978713664462
1526330822976,-0.9599145494773786,0.18219272144655552,-0.22455176623178463
1526330822993,-0.9696803234912643,0.16510261692225559,-0.22748149843595034
1526330823009,-0.9599145494773786,0.17291523613336413,-0.22211032272831321
1526330823025,-0.96919203479057,0.18023956664377838,-0.22455176623178463
1526330823041,-0.9511253528648815,0.1797512779430841,-0.22455176623178463
1526330823057,-0.9569848172732129,0.18805218585488692,-0.237247272449836
1526330823073,-0.9682154573891815,0.17828641184100125,-0.21820401312275894
1526330823089,-0.9545433737697415,0.17926298924238981,-0.23236438544289317
1526330823105,-0.9569848172732129,0.17438010223544698,-0.22162203402761893
1526330823121,-0.9569848172732129,0.19000534065766406,-0.21722743572137038
1526330823137,-0.9662623025864043,0.18023956664377838,-0.20990310521095612
1526330823154,-0.9589379720759901,0.1763332570382241,-0.22406347753109035
1526330823170,-0.9696803234912643,0.18316929884794408,-0.22357518883039607
1526330823186,-0.9677271686884872,0.18658731975280407,-0.2533607995727474
1526330823202,-0.9560082398718244,0.1734035248340584,-0.20990310521095612
1526330823218,-0.9633325703822386,0.18512245365072122,-0.23334096284428174
1526330823234,-0.9604028381780729,0.19342336156252404,-0.22113374532692465
1526330823250,-0.9521019302662701,0.1973296711680783,-0.2401770046540017
1526330823266,-0.9638208590829329,0.18756389715419264,-0.2225986114290075
1526330823282,-0.9716334782940415,0.18463416495002694,-0.2318760967421989
1526330823298,-0.9687037460898758,0.17828641184100125,-0.2167391470206761
1526330823314,-0.9599145494773786,0.1826810101472498,-0.23334096284428174
1526330823331,-0.9569848172732129,0.1914702067597469,-0.22064545662623036
1526330823347,-0.9569848172732129,0.20025940337224402,-0.2284580758373389
1526330823363,-0.9579613946746015,0.19879453727016116,-0.22162203402761893
1526330823379,-0.9584496833752958,0.1978179598687726,-0.21576256961928753
1526330823395,-0.9486839093614101,0.19391165026321833,-0.2318760967421989
1526330823411,-0.9604028381780729,0.1943999389639126,-0.22162203402761893
1526330823427,-0.9530785076676587,0.18951705195696977,-0.23041123064011604
1526330823443,-0.9491721980621044,0.20172426947432687,-0.22357518883039607
1526330823459,-0.953566796368353,0.19049362935835834,-0.23285267414358746
1526330823475,-0.9584496833752958,0.19342336156252404,-0.2162508583199818
1526330823491,-0.9638208590829329,0.1948882276646069,-0.2225986114290075
1526330823507,-0.9662623025864043,0.19928282597085545,-0.21527428091859324
1526330823524,-0.9633325703822386,0.20856031128404684,-0.21136797131303897
1526330823540,-0.9579613946746015,0.20270084687571543,-0.21527428091859324
1526330823556,-0.9789578088044557,0.20611886778057542,-0.23382925154497602
1526330823572,-0.9525902189669644,0.20611886778057542,-0.22504005493247892
1526330823588,-0.9628442816815443,0.20123598077363258,-0.2284580758373389
1526330823604,-0.9633325703822386,0.19049362935835834,-0.22357518883039607
1526330823620,-0.97602807660029,0.1973296711680783,-0.2167391470206761
1526330823636,-0.9687037460898758,0.20221255817502115,-0.2435950255588617
1526330823652,-0.9682154573891815,0.1919584954604412,-0.2133211261158161
1526330823668,-0.9672388799877929,0.19537651636530118,-0.19427786678873904
1526330823685,-0.9579613946746015,0.2066071564812697,-0.22504005493247892
1526330823701,-0.9618677042801558,0.207095445181964,-0.22113374532692465
1526330823717,-0.9550316624704358,0.2124666208896011,-0.21722743572137038
1526330823733,-0.9638208590829329,0.19244678416113548,-0.2108796826123447
1526330823749,-0.9618677042801558,0.19684138246738403,-0.21283283741512182
1526330823765,-0.9506370641641873,0.22662699320973534,-0.22211032272831321
1526330823781,-0.9584496833752958,0.2124666208896011,-0.2255283436331732
1526330823797,-0.9545433737697415,0.21490806439307253,-0.21283283741512182
1526330823813,-0.9521019302662701,0.21734950789654395,-0.2108796826123447
1526330823829,-0.9623559929808501,0.2217441062027925,-0.20941481651026184
1526330823845,-0.9628442816815443,0.2095368886854354,-0.20697337300679042
1526330823862,-0.9594262607766844,0.203677424277104,-0.22015716792553608
1526330823878,-0.9672388799877929,0.21979095140001537,-0.21527428091859324
1526330823894,-0.9633325703822386,0.22369726100556964,-0.19964904249637616
1526330823910,-0.9530785076676587,0.21979095140001537,-0.20843823910887327
1526330823926,-0.9594262607766844,0.21686121919584966,-0.20843823910887327
1526330823942,-0.9516136415655758,0.22223239490348679,-0.19623102159151617
1526330823958,-0.9638208590829329,0.21979095140001537,-0.20355535210193043
1526330823974,-0.9408712901503016,0.21734950789654395,-0.2074616617074847
1526330823990,-0.9516136415655758,0.22662699320973534,-0.1923247119859619
1526330824006,-0.9696803234912643,0.2280918593118182,-0.21136797131303897
1526330824022,-0.9545433737697415,0.23639276722362101,-0.2074616617074847
1526330824039,-0.9579613946746015,0.2525062943465324,-0.20892652780956755
1526330824055,-0.9701686121919586,0.22955672541390104,-0.20550850690470757
1526330824071,-0.9584496833752958,0.2427405203326467,-0.20990310521095612
1526330824087,-0.96577401388571,0.23932249942778672,-0.1820706492713815
1526330824103,-0.9525902189669644,0.20904859998474112,-0.19671931029221046
1526330824119,-0.9516136415655758,0.2276035706111239,-0.19671931029221046
1526330824135,-0.9472190432593273,0.23150988021667818,-0.1986724650949876
1526330824151,-0.9525902189669644,0.23443961242084388,-0.2191805905241475
1526330824167,-0.9643091477836272,0.23639276722362101,-0.2162508583199818
1526330824183,-0.9623559929808501,0.23883421072709243,-0.22211032272831321
1526330824199,-0.9491721980621044,0.2427405203326467,-0.19964904249637616
1526330824215,-0.9594262607766844,0.23150988021667818,-0.2074616617074847
1526330824232,-0.9579613946746015,0.21197833218890683,-0.19134813458457334
1526330824248,-0.9599145494773786,0.203677424277104,-0.20941481651026184
1526330824264,-0.9486839093614101,0.23785763332570387,-0.2499427786678874
1526330824280,-0.9579613946746015,0.22858014801251247,-0.23871213855191886
1526330824296,-0.9735866330968186,0.23150988021667818,-0.1820706492713815
1526330824312,-0.9765163653009843,0.24176394293125814,-0.19769588769359903
1526330824328,-0.9701686121919586,0.25397116044861523,-0.19769588769359903
1526330824344,-0.9569848172732129,0.27447928587777515,-0.19037155718318477
1526330824360,-0.9579613946746015,0.2515297169451438,-0.18841840238040763
1526330824376,-0.96919203479057,0.21344319829098968,-0.19037155718318477
1526330824392,-0.9672388799877929,0.19391165026321833,-0.2133211261158161
1526330824409,-0.9779812314030671,0.18365758754863837,-0.20062561989776473
1526330824425,-0.97261005569543,0.21100175478751826,-0.21234454871442754
1526330824441,-0.9599145494773786,0.2251621271076525,-0.20550850690470757
1526330824457,-0.9599145494773786,0.239810788128481,-0.19769588769359903
1526330824473,-0.9496604867627987,0.239810788128481,-0.20502021820401328
1526330824489,-0.9545433737697415,0.24078736552986957,-0.1957427328908219
1526330824505,-0.9564965285725187,0.23590447852292673,-0.19427786678873904
1526330824521,-0.9652857251850158,0.22711528191042962,-0.20697337300679042
1526330824537,-0.9540550850690472,0.21441977569237824,-0.18841840238040763
1526330824553,-0.9560082398718244,0.2246738384069582,-0.18890669108110192
1526330824569,-0.9745632104982072,0.20025940337224402,-0.1952544441901276
1526330824586,-0.9711451895933472,0.20416571297779829,-0.20599679560540185
1526330824602,-0.9579613946746015,0.22125581750209822,-0.1986724650949876
1526330824618,-0.9545433737697415,0.23785763332570387,-0.1952544441901276
1526330824634,-0.9633325703822386,0.2276035706111239,-0.19916075379568188
1526330824650,-0.9511253528648815,0.23297474631876103,-0.18793011367971335
1526330824666,-0.9618677042801558,0.2246738384069582,-0.19720759899290474
1526330824682,-0.9652857251850158,0.21832608529793252,-0.20257877470054186
1526330824698,-0.9687037460898758,0.22662699320973534,-0.1957427328908219
1526330824714,-0.9652857251850158,0.22613870450904106,-0.18744182497901862
1526330824730,-0.9643091477836272,0.2310215915159839,-0.18109407186999293
1526330824746,-0.9540550850690472,0.2280918593118182,-0.1952544441901276
1526330824763,-0.9613794155794615,0.23443961242084388,-0.19134813458457334
1526330824779,-0.9696803234912643,0.23736934462500958,-0.19623102159151617
1526330824795,-0.9584496833752958,0.23199816891737246,-0.20355535210193043
1526330824811,-0.9604028381780729,0.2188143739986268,-0.18890669108110192
1526330824827,-0.9516136415655758,0.23443961242084388,-0.18109407186999293
1526330824843,-0.9486839093614101,0.24811169604028382,-0.18402380407415864
1526330824859,-0.9623559929808501,0.24078736552986957,-0.17230487525749583
1526330824875,-0.9550316624704358,0.23590447852292673,-0.16595712214847014
1526330824891,-0.9579613946746015,0.24127565423056385,-0.204531929503319
1526330824907,-0.9545433737697415,0.24078736552986957,-0.18793011367971335
1526330824924,-0.9662623025864043,0.2280918593118182,-0.1576562142366673
1526330824940,-0.9594262607766844,0.21441977569237824,-0.18109407186999293
1526330824956,-0.97261005569543,0.22369726100556964,-0.17181658655680154
1526330824972,-0.9740749217975129,0.23004501411459533,-0.18451209277485292
1526330824988,-0.9618677042801558,0.2280918593118182,-0.1762111848630501
1526330825004,-0.9618677042801558,0.23248645761806674,-0.167421988250553
1526330825020,-0.9638208590829329,0.24713511863889526,-0.17230487525749583
1526330825036,-0.9496604867627987,0.2608072022583352,-0.16839856565194156
1526330825052,-0.943312733653773,0.23590447852292673,-0.1820706492713815
1526330825068,-0.9662623025864043,0.21979095140001537,-0.1952544441901276
1526330825084,-0.9574731059739072,0.2310215915159839,-0.1762111848630501
1526330825101,-0.9755397878995957,0.21979095140001537,-0.16937514305333012
1526330825117,-0.9750514991989014,0.21686121919584966,-0.1669336995498587
1526330825133,-0.9770046540016786,0.22711528191042962,-0.18060578316929865
1526330825149,-0.9633325703822386,0.24371709773403527,-0.1727931639581901
1526330825165,-0.9618677042801558,0.2510414282444495,-0.18255893797207579
1526330825181,-0.9525902189669644,0.2642252231631952,-0.17132829785610726
1526330825197,-0.9652857251850158,0.2666666666666666,-0.15960936903944445
1526330825213,-0.9687037460898758,0.2642252231631952,-0.16205081254291587
1526330825229,-0.9628442816815443,0.27106126497291516,-0.15716792553597303
1526330825245,-0.9599145494773786,0.2871747920958265,-0.17523460746166153
1526330825261,-0.9867704280155642,0.29547570000762935,-0.1698634317540244
1526330825278,-0.9745632104982072,0.28326848249027226,-0.14203097581445023
1526330825294,-0.9618677042801558,0.2969405661097122,-0.1576562142366673
1526330825310,-0.9628442816815443,0.3233081559472035,-0.1727931639581901
1526330825326,-0.939894712748913,0.33502708476386633,-0.19769588769359903
1526330825342,-0.9340352483405812,0.33795681696803204,-0.17865262836652152
1526330825358,-0.9442893110551616,0.3335622186617835,-0.17816433966582723
1526330825374,-0.9452658884565501,0.32867933165484065,-0.1923247119859619
1526330825390,-0.9677271686884872,0.3384451056687263,-0.18841840238040763
1526330825406,-0.9569848172732129,0.3218432898451207,-0.1757228961623558
1526330825422,-1.0038605325398642,0.2871747920958265,-0.1923247119859619
1526330825438,-1.0175326161593041,0.3355153734645606,-0.17523460746166153
1526330825455,-1.0131380178530556,0.31891355764095497,-0.20062561989776473
1526330825471,-1.012161440451667,0.312077515831235,-0.19134813458457334
1526330825487,-0.9916533150225071,0.3233081559472035,-0.1703517204547187
1526330825503,-0.9647974364843215,0.3301441977569235,-0.16009765774013873
1526330825519,-0.9652857251850158,0.3037766079194322,-0.14056610971236738
1526330825535,-0.98970016021973,0.29889372091248934,-0.14447241931792165
1526330825551,-0.9848172732127871,0.29791714351110077,-0.0858777752346076
1526330825567,-0.9677271686884872,0.3213550011444264,-0.10003814755474183
1526330825583,-0.9457541771572444,0.3203784237430378,-0.09271381704432757
1526330825599,-0.9833524071107043,0.28912794689860366,-0.09954985885404755
1526330825615,-0.9843289845120928,0.25348287174792095,-0.09906157015335326
1526330825632,-0.9867704280155642,0.28326848249027226,-0.07122911421377909
1526330825648,-0.9672388799877929,0.30719462882429216,-0.04437323567559304
1526330825664,-0.9643091477836272,0.3023117418173493,-0.041443503471427334
1526330825680,-0.9291523613336383,0.28668650339513224,-0.02386511024643312
1526330825696,-0.9408712901503016,0.28912794689860366,-0.03704890516517878
1526330825712,-0.9462424658579387,0.272526131074998,-0.05413900968947871
1526330825728,-0.939894712748913,0.2695963988708323,-0.02532997634851597
1526330825744,-0.9530785076676587,0.27399099717708086,-0.039002059967955915
1526330825760,-0.9643091477836272,0.29205767910276936,-0.019470511940184565
1526330825776,-0.9271992065308612,0.2705729762722209,-0.037537193865873064
1526330825792,-0.9218280308232241,0.21637293049515538,-0.020935378042267416
1526330825809,-0.9374532692454411,0.20465400167849257,-0.00579842832074462
1526330825825,-0.9110856794079498,0.22320897230487535,0.04693675135423803
1526330825841,-0.9257343404287783,0.19684138246738403,0.11041428244449492
1526330825857,-0.8886243991760128,0.207095445181964,0.16119630731670131
1526330825873,-0.8935072861829556,0.21734950789654395,0.17828641184100125
1526330825889,-0.9506370641641873,0.21344319829098968,0.16070801861600703
1526330825905,-1.036087586785687,0.20856031128404684,0.12408636606393486
1526330825921,-1.097611963073167,0.20172426947432687,0.12506294346532432
1526330825937,-1.0775921263447015,0.17193865873197556,0.13971160448615283
1526330825953,-1.0058136873426413,0.1524071107042042,0.1377584496833757
1526330825969,-0.9291523613336383,0.11432059205004919,0.08795300221255786
1526330825985,-0.935500114442664,0.11432059205004919,0.059632257572289404
1526330826002,-0.9574731059739072,0.0806286717021436,0.03814755474174092
1526330826018,-0.9506370641641873,0.04205386434729519,0.04644846265354374
1526330826034,-0.9687037460898758,0.03472953383688093,0.041565575646600905
1526330826050,-0.9921416037232014,0.001037613488975353,0.0357061112382695
1526330826066,-1.0219272144655527,-0.01995880064087885,0.05426108186465228
1526330826082,-1.0561074235141525,-0.0394903486686502,0.08258182650492074
1526330826098,-1.0775921263447015,-0.04339665827420447,0.10846112764171778
1526330826114,-1.09565880827039,-0.06292820630197626,0.11529716945143775
1526330826130,-1.1332570382238498,-0.039002059967955915,0.14459449149309567
1526330826146,-1.118120088502327,-0.05511558709086728,0.09039444571602928
1526330826162,-1.104448004882887,-0.06390478370336483,0.13385214007782142
1526330826179,-1.062943465323873,-0.07611200122072193,0.1406881818875414
1526330826195,-1.0253452353704127,-0.11517509727626463,0.08599984740978073
1526330826211,-0.9975127794308385,-0.07806515602349906,0.06646829938200938
1526330826227,-0.9804226749065386,-0.06927595941100195,0.08599984740978073
1526330826243,-0.9569848172732129,-0.09271381704432757,0.07135118638895221
1526330826259,-0.932082093537804,-0.131288624399176,0.07330434119172935
1526330826275,-0.9452658884565501,-0.13910124361028453,0.08160524910353217
1526330826291,-0.943312733653773,-0.11663996337834748,0.06353856717784367
1526330826307,-0.9545433737697415,-0.08929579613946759,0.06353856717784367
1526330826323,-0.9730983443961243,-0.0829480430304419,0.04986648355840373
1526330826339,-0.9960479133287556,-0.1068741893644618,0.07037460898756365
1526330826356,-0.9701686121919586,-0.06536964980544768,0.08551155870908644
1526330826372,-1.012161440451667,-0.05267414358739586,0.0806286717021436
1526330826388,-0.9877470054169528,-0.045349813076981604,0.10553139543755208
1526330826404,-0.9750514991989014,-0.06292820630197626,0.09185931181811213
1526330826420,-1.005325398641947,-0.07611200122072193,0.07428091859311792
1526330826436,-1.0097199969481956,-0.058533607995727266,0.0776989394979779
1526330826452,-1.0072785534447242,-0.0575570305943387,0.06793316548409223
1526330826468,-1.0209506370641641,-0.04779125658045302,0.10113679713130352
1526330826484,-1.0102082856488899,-0.05023270008392444,0.0928358892195007
1526330826500,-1.0043488212405585,-0.024353398947127403,0.10260166323338638
1526330826516,-0.9945830472266728,-0.04730296787975874,0.11969176775768631
1526330826533,-0.9970244907301442,-0.05120927748531301,0.12115663385976916
1526330826549,-0.9687037460898758,-0.053162432288090145,0.12359807736324058
1526330826565,-0.9242694743266955,-0.07220569161516766,0.14898908979934422
1526330826581,-0.8983901731898984,-0.08929579613946759,0.1465476462958728
1526330826597,-0.8686045624475471,-0.12445258258945602,0.11773861295490917
1526330826613,-0.9042496375982298,-0.11029221026932179,0.07965209430075504
1526330826629,-0.9696803234912643,-0.07806515602349906,0.09820706492713782
1526330826645,-1.0175326161593041,-0.05511558709086728,0.1289692530708786
1526330826661,-1.0180209048599984,6.103608758678547E-5,0.12994583047226715
1526330826677,-1.073197528038453,-0.0014038300144960658,0.1289692530708786
1526330826693,-1.0937056534676128,0.03179980163271523,0.09967193102922067
1526330826710,-1.08882276646067,0.053772793163958,0.0776989394979779
1526330826726,-1.0937056534676128,0.07965209430075504,0.07135118638895221
1526330826742,-1.0907759212634471,0.12603952086671288,0.041565575646600905
1526330826758,-1.1186083772030213,0.17291523613336413,-0.002868696116578917
1526330826774,-1.0756389715419243,0.1494773785000385,0.02398718242160669
1526330826790,-1.0536659800106811,0.21490806439307253,-0.05560387579156156
1526330826806,-1.024368657969024,0.1734035248340584,-0.02288853284504455
1526330826822,-1.008743419546807,0.11822690165560346,-0.012146181429770309
1526330826838,-1.0238803692683298,0.10260166323338638,-0.0678110933089191
1526330826854,-1.0219272144655527,0.10113679713130352,-0.07806515602349906
1526330826871,-1.0331578545815212,0.1704737926298927,-0.09564354924849328
1526330826887,-0.9970244907301442,0.21686121919584966,-0.12103456168459603
1526330826903,-1.0009308003356985,0.2485999847409781,-0.15423819333180733
1526330826919,-0.9921416037232014,0.25348287174792095,-0.15326161593041876
1526330826935,-1.008743419546807,0.23150988021667818,-0.17084000915541298
1526330826951,-1.0478065156023497,0.23932249942778672,-0.16009765774013873
1526330826967,-1.0478065156023497,0.24713511863889526,-0.14251926451514452
1526330826983,-1.025833524071107,0.21832608529793252,-0.12152285038529032
1526330826999,-1.0146028839551384,0.1973296711680783,-0.08831921873807902
1526330827015,-1.0175326161593041,0.20172426947432687,-0.07562371252002764
1526330827031,-1.0150911726558327,0.2124666208896011,-0.08050659952697048
1526330827048,-1.012161440451667,0.22027924010070965,-0.05999847409781012
1526330827064,-0.9931181811245899,0.20123598077363258,-0.054627298390172996
1526330827080,-1.0023956664377813,0.1973296711680783,-0.04437323567559304
1526330827096,-0.9833524071107043,0.19537651636530118,-0.04583810177767589
1526330827112,-0.9677271686884872,0.19049362935835834,-0.033630884260318794
1526330827128,-0.9638208590829329,0.2153963530937668,-0.035095750362401645
1526330827144,-0.9613794155794615,0.20416571297779829,-0.028259708552681673
1526330827160,-0.9506370641641873,0.21149004348821254,-0.030212863355458808
1526330827176,-0.9516136415655758,0.20318913557640972,-0.030212863355458808
1526330827192,-0.9623559929808501,0.22662699320973534,-0.04193179217212162
1526330827208,-0.9853055619134814,0.23736934462500958,-0.028747997253375956
1526330827224,-0.9901884489204242,0.2490882734416724,-0.01995880064087885
1526330827241,-1.0004425116350042,0.24420538643472955,-0.015075913633936011
1526330827257,-1.0092317082475013,0.24811169604028382,-0.0038452735179674846
1526330827273,-1.0043488212405585,0.2310215915159839,0.027405203326466676
1526330827289,-1.0116731517509727,0.23639276722362101,0.024475471122300974
1526330827305,-1.0102082856488899,0.23932249942778672,0.025940337224383825
1526330827321,-1.0102082856488899,0.239810788128481,0.010803387502861028
1526330827337,-1.0097199969481956,0.24225223163195242,0.03179980163271523
1526330827353,-1.0126497291523613,0.2544594491493095,0.04254215304798947
1526330827369,-1.0199740596627755,0.24957656214236668,0.061097123674372256
1526330827385,-1.0111848630502784,0.21832608529793252,0.07574578469520077
1526330827401,-1.012161440451667,0.21441977569237824,0.09185931181811213
1526330827418,-1.0058136873426413,0.19293507286182976,0.09478904402227784
1526330827434,-0.9818875410086214,0.17486839093614126,0.0806286717021436
1526330827450,-0.9672388799877929,0.17730983443961268,0.089906157015335
1526330827466,-0.9379415579461359,0.18756389715419264,0.11236743724727205
1526330827482,-0.9403830014496073,0.18414587624933265,0.09625391012436069
1526330827498,-0.9594262607766844,0.18463416495002694,0.08795300221255786
1526330827514,-0.9662623025864043,0.18463416495002694,0.09381246662088927
1526330827530,-0.9711451895933472,0.17193865873197556,0.07379262989242363
1526330827546,-1.0004425116350042,0.1646143282215613,0.10260166323338638
1526330827562,-0.9911650263218128,0.16559090562294987,0.12457465476462914
1526330827579,-0.9848172732127871,0.1528953994048985,0.13141069657435
1526330827595,-0.9672388799877929,0.1436179140917071,0.12213321126115773
1526330827611,-0.9242694743266955,0.13580529488059856,0.12408636606393486
1526330827627,-0.9164568551155869,0.12506294346532432,0.12359807736324058
1526330827643,-0.8793469138628214,0.12750438696879574,0.12066834515907487
1526330827659,-0.8705577172503243,0.13238727397573857,0.10699626153963493
1526330827675,-0.9052262149996184,0.1318989852750443,0.1167620355535206
1526330827691,-0.9496604867627987,0.14898908979934422,0.08160524910353217
1526330827707,-0.9789578088044557,0.13238727397573857,0.09723048752574925
1526330827723,-1.0316929884794384,0.10601968413824636,0.10357824063477494
1526330827739,-1.0780804150453958,0.10064850843060924,0.11139085984588348
1526330827756,-1.1264209964141298,0.07281605249103507,0.13971160448615283
1526330827772,-1.1205615320057984,0.059632257572289404,0.1797512779430841
1526330827788,-1.0937056534676128,0.028870069428549527,0.2305333028152896
1526330827804,-1.0771038376440072,-0.010681315327687457,0.24371709773403527
1526330827820,-1.0536659800106811,-0.028259708552681673,0.24127565423056385
1526330827836,-1.0419470511940183,-0.0424200808728159,0.22906843671320676
1526330827852,-1.018997482261387,-0.01361104753185316,0.19977111467154973
1526330827868,-1.0014190890363928,-0.006775005722133187,0.1919584954604412
1526330827884,-0.9916533150225071,-0.010681315327687457,0.17291523613336413
1526330827900,-0.9989776455329213,-0.007751583123521755,0.15143053330281564
1526330827916,-0.9872587167162585,-0.005310139620050336,0.12750438696879574
1526330827933,-0.98628213931487,-4.272526131074983E-4,0.1343404287785157
1526330827949,-0.9867704280155642,0.0039673456931410556,0.1406881818875414
1526330827965,-0.9872587167162585,0.004455634393835339,0.1763332570382241
1526330827981,-0.9843289845120928,6.103608758678547E-5,0.16363775082017273
1526330827997,-0.9643091477836272,-0.00970473792629889,0.19049362935835834
1526330828013,-0.9823758297093157,-0.026306553749904538,0.21051346608682397
1526330828029,-0.97944609750515,-0.01898222323949028,0.20856031128404684
1526330828045,-0.9848172732127871,-0.01751735713740743,0.17486839093614126
1526330828061,-0.9955596246280614,-0.014099336232547444,0.19391165026321833
1526330828077,-1.0058136873426413,-0.005310139620050336,0.2158846417944611
1526330828093,-1.0102082856488899,-0.008239871824216038,0.18805218585488692
1526330828110,-1.018997482261387,0.00982681010147246,0.17291523613336413
1526330828126,-1.0082551308461127,0.02008087281605242,0.16510261692225559
1526330828142,-0.9813992523079271,0.01226825360494388,0.16656748302433844
1526330828158,-0.9765163653009843,0.028870069428549527,0.167544060425727
1526330828174,-0.9755397878995957,0.018127718013275285,0.17584496833752983
1526330828190,-0.9696803234912643,0.010315098802166744,0.18805218585488692
1526330828206,-0.9589379720759901,0.002990768291752488,0.19244678416113548
1526330828222,-0.9589379720759901,-0.0038452735179674846,0.21637293049515538
1526330828238,-0.9735866330968186,5.493247882810692E-4,0.22076752880140393
1526330828254,-0.9882352941176471,0.02008087281605242,0.20563057907988114
1526330828270,-0.9809109636072328,0.010803387502861028,0.19830624856946688
1526330828287,-0.97944609750515,0.013244831006332447,0.21197833218890683
1526330828303,-0.9926298924238957,0.01226825360494388,0.22955672541390104
1526330828319,-0.9975127794308385,0.022034027618829555,0.20758373388265827
1526330828335,-0.9921416037232014,0.022034027618829555,0.19635309376668975
1526330828351,-1.00337224383917,0.033752956435492365,0.19244678416113548
1526330828367,-0.9989776455329213,0.020569161516746703,0.18219272144655552
1526330828383,-0.9945830472266728,0.030823224231326662,0.19928282597085545
1526330828399,-0.9765163653009843,0.037659266041046635,0.19049362935835834
1526330828415,-0.96577401388571,0.04205386434729519,0.19977111467154973
1526330828431,-0.9530785076676587,0.0357061112382695,0.18121614404516695
1526330828447,-0.9428244449530787,0.015197985809109582,0.20318913557640972
1526330828464,-0.9579613946746015,-0.005310139620050336,0.2334630350194553
1526330828480,-0.935500114442664,0.011291676203555312,0.2276035706111239
1526330828496,-0.9340352483405812,-0.015564202334630295,0.22320897230487535
1526330828512,-0.9472190432593273,-0.03607232776379021,0.203677424277104
1526330828528,-0.9765163653009843,-0.02532997634851597,0.18658731975280407
1526330828544,-0.9682154573891815,-0.0038452735179674846,0.1914702067597469
1526330828560,-0.96919203479057,-0.0214236667429617,0.2066071564812697
1526330828576,-1.008743419546807,0.06939803158617508,0.19586480506599546
1526330828592,-1.0531776913099868,0.07916380560006075,0.1377584496833757
1526330828608,-1.1845273517967496,0.16900892652780986,0.1050431067368578
1526330828624,-1.157671473258564,0.1553368429083699,0.10308995193408066
1526330828641,-1.1430228122377355,0.16656748302433844,0.09381246662088927
1526330828657,-1.1122606240939956,0.18512245365072122,0.0327763790341038
1526330828673,-1.1015182726787214,0.207095445181964,0.06207370107576082
1526330828689,-1.1171435111009385,0.20465400167849257,0.00836194399938961
1526330828705,-1.1073777370870528,0.19537651636530118,0.019592584115358136
1526330828721,-1.0722209506370644,0.17193865873197556,-0.020447089341573133
1526330828737,-1.0185091935606927,0.1646143282215613,-0.009216449225604606
1526330828753,-0.9804226749065386,0.1797512779430841,-0.04193179217212162
1526330828769,-0.9047379262989241,0.2066071564812697,0.005432211795223907
1526330828785,-0.8461432822156101,0.2188143739986268,-0.02386511024643312
1526330828801,-0.8280766002899216,0.21490806439307253,-0.019470511940184565
1526330828818,-0.8646982528419929,0.22613870450904106,-0.046814679179064456
1526330828834,-0.9413595788509959,0.26178377965972377,-0.03704890516517878
1526330828850,-0.9550316624704358,0.2666666666666666,-0.06341649500267055
1526330828866,-0.9706569008926529,0.2544594491493095,-0.018493934538795997
1526330828882,-0.9833524071107043,0.2368810559243153,-0.029724574654764524
1526330828898,-1.0097199969481956,0.2520180056458381,-0.026306553749904538
1526330828914,-1.0194857709620813,0.2544594491493095,-0.005310139620050336
1526330828930,-0.9989776455329213,0.2676432440680552,-0.03411917296101308
1526330828946,-0.9921416037232014,0.2847333485923551,0.006897077897306758
1526330828962,-0.9716334782940415,0.29547570000762935,0.004455634393835339
1526330828978,-0.97261005569543,0.2871747920958265,-0.030212863355458808
1526330828995,-0.9799343862058443,0.2705729762722209,-0.013122758831158876
1526330829011,-0.9696803234912643,0.24762340733958954,5.493247882810692E-4
1526330829027,-0.9706569008926529,0.24762340733958954,0.0015259021896696368
1526330829043,-0.9628442816815443,0.23590447852292673,-0.002868696116578917
1526330829059,-0.9525902189669644,0.24078736552986957,-0.018493934538795997
1526330829075,-0.9506370641641873,0.23834592202639815,-0.011169604028381741
1526330829091,-0.9496604867627987,0.24176394293125814,-0.018493934538795997
1526330829107,-0.97261005569543,0.22418554970626392,-0.020447089341573133
1526330829123,-0.9911650263218128,0.21344319829098968,-0.010193026626993174
1526330829139,-1.0072785534447242,0.203677424277104,0.0025024795910582043
1526330829155,-1.0082551308461127,0.20416571297779829,0.010803387502861028
1526330829172,-1.034622720683604,0.18414587624933265,0.014709697108415298
1526330829188,-1.0741741054398415,0.17193865873197556,0.010803387502861028
1526330829204,-1.0829633020523386,0.13580529488059856,0.013244831006332447
1526330829220,-1.2074769207293814,0.10699626153963493,-0.01995880064087885
1526330829236,-1.3056229495689324,0.11432059205004919,-0.05511558709086728
1526330829252,-1.1596246280613411,0.12359807736324058,-0.004821850919356052
1526330829268,-1.0771038376440072,0.045471885252155175,-0.011657892729076025
1526330829284,-0.9706569008926529,0.06646829938200938,-0.0018921187151903496
1526330829300,-0.9413595788509959,0.11920347905699202,-0.05023270008392444
1526330829316,-0.9423361562523844,0.15045395590142707,-0.035095750362401645
1526330829332,-0.9198748760204469,0.13092240787365572,-0.09710841535057613
1526330829349,-0.9184100099183641,0.11871519035629774,-0.08197146562905333
1526330829365,-0.9374532692454411,0.07574578469520077,-0.10492103456168467
1526330829381,-0.9730983443961243,0.09039444571602928,-0.08685435263599617
1526330829397,-1.0009308003356985,0.08599984740978073,-0.07611200122072193
1526330829413,-1.0165560387579156,0.06305027847714939,-0.06829938200961339
1526330829429,-1.0282749675745784,0.02545204852368954,-0.08245975432974761
1526330829445,-1.0497596704051269,0.008850232700083893,-0.05804531929503298
1526330829461,-1.036087586785687,0.028381780727855244,-0.04486152437628732
1526330829477,-1.0307164110780498,0.02935835812924381,-0.05951018539711583
1526330829493,-1.0229037918669412,0.02154573891813527,-0.054627298390172996
1526330829510,-0.9989776455329213,0.024475471122300974,-0.05609216449225585
1526330829526,-0.98970016021973,0.02154573891813527,-0.008728160524910322
1526330829542,-0.9867704280155642,0.006408789196612474,-0.062439917601281536
1526330829558,-0.9701686121919586,0.004943923094529623,-0.06146334019989297
1526330829574,-0.9770046540016786,-0.004333562218661768,-0.06536964980544768
1526330829590,-0.9745632104982072,-0.013122758831158876,-0.06292820630197626
1526330829606,-0.9892118715190357,-0.007751583123521755,-0.046814679179064456
1526330829622,-0.9838406958113985,-0.02288853284504455,-0.04437323567559304
1526330829638,-1.001907377737087,-0.02386511024643312,-0.04974441138323016
1526330829654,-0.9984893568322271,-0.04486152437628732,-0.06390478370336483
1526330829670,-1.0004425116350042,-0.05120927748531301,-0.042908369573510186
1526330829687,-1.0180209048599984,-0.06195162890058725,-0.029724574654764524
1526330829703,-1.0165560387579156,-0.06341649500267055,-0.025818265049210254
1526330829719,-1.0146028839551384,-0.050720988784618726,-0.012634470130464592
1526330829735,-1.0170443274586098,-0.06439307240405912,-0.028259708552681673
1526330829751,-1.0038605325398642,-0.05999847409781012,-0.028259708552681673
1526330829767,-1.0204623483634698,-0.060975051499198685,-0.04095521477073305
1526330829783,-1.0141145952544441,-0.05951018539711583,-0.03802548256656735
1526330829799,-1.0282749675745784,-0.053162432288090145,-0.03607232776379021
1526330829815,-1.0507362478065154,-0.05560387579156156,-0.03411917296101308
1526330829831,-1.041458762493324,-0.041443503471427334,-0.02923628595407024
1526330829847,-1.027786678873884,-0.045349813076981604,0.00836194399938961
1526330829864,-1.0111848630502784,-0.042908369573510186,-0.029724574654764524
1526330829880,-1.0263218127718012,-0.035095750362401645,0.015686274509803866
1526330829896,-1.0287632562752727,-0.045349813076981604,0.0508430609597923
1526330829912,-1.0375524528877698,-0.018005645838101714,0.02935835812924381
1526330829928,-1.0082551308461127,-0.006775005722133187,0.025940337224383825
1526330829944,-1.0009308003356985,-0.010193026626993174,0.03717097734035235
1526330829960,-0.9901884489204242,0.026916914625772392,0.0386358434424352
1526330829976,-0.9843289845120928,0.02789349202716096,0.03717097734035235
1526330829992,-0.97261005569543,0.029846646829938095,0.06695658808270366
1526330830008,-0.9628442816815443,0.03179980163271523,0.02545204852368954
1526330830024,-0.9628442816815443,0.04644846265354374,0.04498359655146089
1526330830041,-0.9589379720759901,0.05523765926604085,0.05133134966048658
1526330830057,-0.9779812314030671,0.06451514457923224,0.05865568017090084
1526330830073,-0.9867704280155642,0.07818722819867219,0.06939803158617508
1526330830089,-0.9965362020294499,0.0928358892195007,0.07086289768825793
1526330830105,-0.9955596246280614,0.08648813611047501,0.09137102311741785
1526330830121,-0.9960479133287556,0.08648813611047501,0.06646829938200938
1526330830137,-1.0063019760433356,0.0928358892195007,0.06793316548409223
1526330830153,-1.001907377737087,0.08795300221255786,0.06500343327992653
1526330830169,-1.0038605325398642,0.10943770504310635,0.05279621576256943
1526330830185,-0.9984893568322271,0.12506294346532432,0.05523765926604085
1526330830202,-0.9950713359273671,0.11969176775768631,0.08014038300144932
1526330830218,-0.9965362020294499,0.12945754177157287,0.06207370107576082
1526330830234,-1.0180209048599984,0.14459449149309567,0.0718394750896465
1526330830250,-1.0072785534447242,0.16949721522850414,0.0689097428854808
1526330830266,-1.0102082856488899,0.14898908979934422,0.057190814068817986
1526330830282,-0.9989776455329213,0.1768215457389184,0.06500343327992653
1526330830298,-0.9950713359273671,0.19000534065766406,0.055725947966735134
1526330830314,-1.0126497291523613,0.17877470054169553,0.05133134966048658
1526330830330,-1.029251544975967,0.18658731975280407,0.07574578469520077
1526330830346,-1.044876783398184,0.18316929884794408,0.05230792706187515
1526330830362,-1.0429236285954069,0.20758373388265827,0.0718394750896465
1526330830379,-1.031204699778744,0.20611886778057542,0.0747692072938122
1526330830395,-1.0043488212405585,0.21393148699168396,0.06353856717784367
1526330830411,-0.9823758297093157,0.23150988021667818,0.07379262989242363
1526330830427,-0.97944609750515,0.24176394293125814,0.06305027847714939
1526330830443,-0.9813992523079271,0.25299458304722666,0.06988632028686936
1526330830459,-0.97602807660029,0.239810788128481,0.04693675135423803
1526330830475,-0.9779812314030671,0.23297474631876103,0.0386358434424352
1526330830491,-0.9950713359273671,0.2153963530937668,0.07135118638895221
1526330830507,-0.9672388799877929,0.19928282597085545,0.04986648355840373
1526330830523,-0.9848172732127871,0.21197833218890683,0.06646829938200938
1526330830539,-0.9818875410086214,0.22662699320973534,0.07818722819867219
1526330830556,-0.9921416037232014,0.2334630350194553,0.07379262989242363
1526330830572,-0.9877470054169528,0.21637293049515538,0.055725947966735134
1526330830588,-0.9857938506141757,0.2100251773861297,0.0718394750896465
1526330830604,-0.9906767376211185,0.2217441062027925,0.07965209430075504
1526330830620,-0.9926298924238957,0.21637293049515538,0.07916380560006075
1526330830636,-0.9975127794308385,0.21100175478751826,0.06207370107576082
1526330830652,-0.97261005569543,0.19879453727016116,0.06939803158617508
1526330830668,-0.9877470054169528,0.1890287632562755,0.08404669260700359
1526330830684,-0.9857938506141757,0.20172426947432687,0.06549172198062081
1526330830700,-0.9916533150225071,0.2334630350194553,0.0718394750896465
1526330830716,-0.98970016021973,0.23639276722362101,0.07086289768825793
1526330830733,-0.9784695201037614,0.23590447852292673,0.08355840390630931
1526330830749,-0.97602807660029,0.2310215915159839,0.06500343327992653
1526330830765,-0.9618677042801558,0.22320897230487535,0.06060883497367797
1526330830781,-0.98970016021973,0.20221255817502115,0.08599984740978073
1526330830797,-0.9980010681315328,0.18414587624933265,0.10553139543755208
1526330830813,-0.9975127794308385,0.17291523613336413,0.06646829938200938
1526330830829,-1.005325398641947,0.18414587624933265,0.0689097428854808
1526330830845,-0.9804226749065386,0.17291523613336413,0.05279621576256943
1526330830861,-0.9872587167162585,0.18951705195696977,0.040100709544518054
1526330830877,-0.9975127794308385,0.19879453727016116,0.07135118638895221
1526330830893,-0.9931181811245899,0.19830624856946688,0.08014038300144932
1526330830910,-1.0023956664377813,0.19244678416113548,0.07574578469520077
1526330830926,-0.9975127794308385,0.16900892652780986,0.09088273441672357
1526330830942,-0.9975127794308385,0.1768215457389184,0.08014038300144932
1526330830958,-0.9823758297093157,0.1763332570382241,0.07037460898756365
1526330830974,-0.9789578088044557,0.17730983443961268,0.06060883497367797
1526330830990,-0.9813992523079271,0.1919584954604412,0.07818722819867219
1526330831006,-0.9989776455329213,0.20514229037918685,0.07916380560006075
1526330831022,-0.9892118715190357,0.18756389715419264,0.0869764248111693
1526330831038,-0.9799343862058443,0.1738918135347527,0.06353856717784367
1526330831054,-0.9916533150225071,0.17486839093614126,0.06793316548409223
1526330831070,-1.0004425116350042,0.17145037003128127,0.08258182650492074
1526330831087,-1.0028839551384756,0.16363775082017273,0.07721065079728362
1526330831103,-1.0028839551384756,0.16314946211947845,0.07135118638895221
1526330831119,-0.9799343862058443,0.18365758754863837,0.07232776379034078
1526330831135,-0.9901884489204242,0.1797512779430841,0.08746471351186358
1526330831151,-1.0009308003356985,0.1704737926298927,0.07721065079728362
1526330831167,-0.9980010681315328,0.17291523613336413,0.07916380560006075
1526330831183,-0.9931181811245899,0.16314946211947845,0.09430075532158355
1526330831199,-0.9882352941176471,0.17828641184100125,0.08258182650492074
1526330831215,-0.9843289845120928,0.16998550392919842,0.09088273441672357
1526330831231,-1.0150911726558327,0.1646143282215613,0.08355840390630931
1526330831247,-0.9989776455329213,0.18463416495002694,0.09234760051880642
1526330831264,-0.9989776455329213,0.16852063782711557,0.10260166323338638
1526330831280,-0.9911650263218128,0.1768215457389184,0.11529716945143775
1526330831296,-0.9911650263218128,0.1646143282215613,0.06793316548409223
1526330831312,-1.0043488212405585,0.16021972991531275,0.08795300221255786
1526330831328,-0.98970016021973,0.18463416495002694,0.10894941634241206
1526330831344,-0.98970016021973,0.16656748302433844,0.11773861295490917
1526330831360,-1.0229037918669412,0.1768215457389184,0.11334401464866062
1526330831376,-0.9970244907301442,0.11627374685282632,0.08746471351186358
1526330831392,-0.9740749217975129,0.15094224460212136,0.10943770504310635
1526330831408,-0.9638208590829329,0.17291523613336413,0.1138323033493549
1526330831425,-1.041458762493324,0.12262149996185201,0.089906157015335
1526330831441,-1.0063019760433356,0.13580529488059856,0.12457465476462914
1526330831457,-0.9872587167162585,0.14752422369726137,0.08844129091325215
1526330831473,-0.9916533150225071,0.19049362935835834,0.10406652933546923
1526330831489,-0.9872587167162585,0.14898908979934422,0.1167620355535206
1526330831505,-0.9906767376211185,0.16998550392919842,0.1079728389410235
1526330831521,-1.00337224383917,0.16559090562294987,0.0957656214236664
1526330831537,-0.9950713359273671,0.1856107423514155,0.10650797283894065
1526330831553,-0.9980010681315328,0.16705577172503272,0.11041428244449492
1526330831569,-0.9652857251850158,0.1680323491264213,0.09234760051880642
1526330831585,-0.9965362020294499,0.16412603952086702,0.11773861295490917
1526330831602,-0.9936064698252842,0.1797512779430841,0.07818722819867219
1526330831618,-0.9945830472266728,0.18219272144655552,0.10943770504310635
1526330831634,-0.9809109636072328,0.18463416495002694,0.10016021972991496
1526330831650,-0.9877470054169528,0.1797512779430841,0.1167620355535206
1526330831666,-0.9955596246280614,0.16656748302433844,0.0986953536278321
1526330831682,-0.9984893568322271,0.19342336156252404,0.11334401464866062
1526330831698,-0.9945830472266728,0.18316929884794408,0.12750438696879574
1526330831714,-1.012161440451667,0.1768215457389184,0.11627374685282632
1526330831730,-0.9853055619134814,0.19342336156252404,0.09478904402227784
1526330831746,-0.9784695201037614,0.1943999389639126,0.11187914854657777
1526330831762,-0.9813992523079271,0.19684138246738403,0.1255512321660186
1526330831779,-0.9843289845120928,0.18316929884794408,0.1109025711451892
1526330831795,-0.98628213931487,0.19391165026321833,0.09430075532158355
1526330831811,-0.9931181811245899,0.18756389715419264,0.11725032425421489
1526330831827,-0.9901884489204242,0.19977111467154973,0.12408636606393486
1526330831843,-0.9921416037232014,0.20758373388265827,0.10943770504310635
1526330831859,-0.97602807660029,0.1890287632562755,0.11285572594796633
1526330831875,-0.9789578088044557,0.19635309376668975,0.08160524910353217
1526330831891,-0.9848172732127871,0.21441977569237824,0.11139085984588348
1526330831907,-0.9750514991989014,0.20856031128404684,0.1138323033493549
1526330831923,-0.9853055619134814,0.21490806439307253,0.1109025711451892
1526330831939,-0.9906767376211185,0.21393148699168396,0.09430075532158355
1526330831956,-1.0023956664377813,0.2251621271076525,0.10260166323338638
1526330831972,-0.9882352941176471,0.21637293049515538,0.10211337453269209
1526330831988,-0.9872587167162585,0.23004501411459533,0.10016021972991496
1526330832004,-0.9799343862058443,0.23248645761806674,0.10016021972991496
1526330832020,-0.9833524071107043,0.20904859998474112,0.11041428244449492
1526330832036,-0.9716334782940415,0.21930266269932108,0.09185931181811213
1526330832052,-0.9818875410086214,0.22955672541390104,0.10016021972991496
1526330832068,-0.98970016021973,0.2246738384069582,0.10650797283894065
1526330832084,-0.9906767376211185,0.22858014801251247,0.11480888075074347
1526330832100,-0.9755397878995957,0.21344319829098968,0.12115663385976916
1526330832116,-0.9809109636072328,0.22906843671320676,0.10113679713130352
1526330832133,-0.9965362020294499,0.23297474631876103,0.10699626153963493
1526330832149,-0.9867704280155642,0.2188143739986268,0.10406652933546923
1526330832165,-0.9789578088044557,0.2129549095902954,0.13238727397573857
1526330832181,-0.9823758297093157,0.20758373388265827,0.10650797283894065
1526330832197,-0.9613794155794615,0.23443961242084388,0.10748455024032921
1526330832213,-0.9804226749065386,0.2276035706111239,0.10113679713130352
1526330832229,-0.9823758297093157,0.22027924010070965,0.09088273441672357
1526330832245,-0.9882352941176471,0.22418554970626392,0.10113679713130352
1526330832261,-0.98970016021973,0.23199816891737246,0.1109025711451892
1526330832277,-0.9955596246280614,0.22369726100556964,0.12066834515907487
1526330832293,-0.98628213931487,0.24225223163195242,0.11871519035629774
1526330832310,-0.9843289845120928,0.22272068360418107,0.10943770504310635
1526330832326,-0.9770046540016786,0.2280918593118182,0.09527733272297212
1526330832342,-0.9706569008926529,0.2310215915159839,0.10357824063477494
1526330832358,-0.9730983443961243,0.23199816891737246,0.09185931181811213
1526330832374,-0.9677271686884872,0.23297474631876103,0.10406652933546923
1526330832390,-0.9755397878995957,0.21930266269932108,0.13141069657435
1526330832406,-0.9892118715190357,0.22858014801251247,0.1050431067368578
1526330832422,-0.9867704280155642,0.22906843671320676,0.11920347905699202
1526330832438,-0.9911650263218128,0.2188143739986268,0.09527733272297212
1526330832454,-0.9745632104982072,0.24127565423056385,0.10894941634241206
1526330832470,-0.97602807660029,0.22711528191042962,0.11578545815213204
1526330832487,-0.9750514991989014,0.22711528191042962,0.09820706492713782
1526330832503,-0.9745632104982072,0.22369726100556964,0.07525749599450648
1526330832519,-0.9755397878995957,0.21441977569237824,0.06402685587853796
1526330832535,-0.9926298924238957,0.22369726100556964,0.10553139543755208
1526330832551,-0.9911650263218128,0.2276035706111239,0.06646829938200938
1526330832567,-0.9960479133287556,0.2153963530937668,0.09918364232852639
1526330832583,-0.9877470054169528,0.24420538643472955,0.10553139543755208
1526330832599,-0.9711451895933472,0.24420538643472955,0.12164492256046344
1526330832615,-1.0219272144655527,0.23492790112153816,0.1289692530708786
1526330832631,-0.9804226749065386,0.22223239490348679,0.10113679713130352
1526330832648,-0.9706569008926529,0.2153963530937668,0.09430075532158355
1526330832664,-0.9740749217975129,0.21832608529793252,0.07721065079728362
1526330832680,-0.97944609750515,0.21344319829098968,0.08209353780422646
1526330832696,-0.9911650263218128,0.2461585412375067,0.1109025711451892
1526330832712,-0.9999542229343099,0.23199816891737246,0.10894941634241206
1526330832728,-0.9931181811245899,0.2334630350194553,0.09918364232852639
1526330832744,-0.9975127794308385,0.2276035706111239,0.10406652933546923
1526330832760,-0.9784695201037614,0.22906843671320676,0.09234760051880642
1526330832776,-0.9813992523079271,0.2334630350194553,0.11725032425421489
1526330832792,-0.9818875410086214,0.22369726100556964,0.06793316548409223
1526330832808,-0.9755397878995957,0.23004501411459533,0.09430075532158355
1526330832825,-0.9818875410086214,0.21832608529793252,0.08453498130769788
1526330832841,-0.9877470054169528,0.22320897230487535,0.0957656214236664
1526330832857,-0.9838406958113985,0.2188143739986268,0.10406652933546923
1526330832873,-0.9838406958113985,0.2188143739986268,0.09674219882505497
1526330832889,-0.97602807660029,0.22223239490348679,0.08892957961394643
1526330832905,-0.9716334782940415,0.1973296711680783,0.04986648355840373
1526330832921,-0.9745632104982072,0.20465400167849257,0.04986648355840373
1526330832937,-0.9652857251850158,0.18072785534447267,0.0747692072938122
1526330832953,-0.9950713359273671,0.2129549095902954,0.09918364232852639
1526330832969,-0.9945830472266728,0.2124666208896011,0.11285572594796633
1526330832985,-0.9892118715190357,0.21783779659723823,0.09527733272297212
1526330833002,-0.9833524071107043,0.2368810559243153,0.11578545815213204
1526330833018,-0.9779812314030671,0.22858014801251247,0.08599984740978073
1526330833034,-0.9643091477836272,0.20221255817502115,0.0957656214236664
1526330833050,-0.9521019302662701,0.21100175478751826,0.1167620355535206
1526330833066,-0.9545433737697415,0.24225223163195242,0.11871519035629774
1526330833082,-0.9345235370412754,0.25348287174792095,0.08795300221255786
1526330833098,-0.9579613946746015,0.24957656214236668,0.10308995193408066
1526330833114,-0.9809109636072328,0.269108110170138,0.08453498130769788
1526330833130,-0.9901884489204242,0.26178377965972377,0.11187914854657777
1526330833146,-0.9594262607766844,0.2783855954833294,0.06207370107576082
1526330833162,-0.9926298924238957,0.26861982146944374,0.08014038300144932
1526330833179,-1.0282749675745784,0.30719462882429216,0.12018005645838059
1526330833195,-1.0014190890363928,0.33160906385900635,0.09234760051880642
1526330833211,-0.9750514991989014,0.31891355764095497,0.0957656214236664
1526330833227,-0.9706569008926529,0.3452811474784463,0.0776989394979779
1526330833243,-0.9457541771572444,0.3457694361791406,0.07428091859311792
1526330833259,-0.9545433737697415,0.3457694361791406,0.0776989394979779
1526330833275,-0.9799343862058443,0.3599298084992748,0.08453498130769788
1526330833291,-0.98970016021973,0.3570000762951091,0.05426108186465228
1526330833307,-0.9638208590829329,0.3486991683833063,0.0718394750896465
1526330833323,-0.9730983443961243,0.3540703440909434,0.049378194857709445
1526330833340,-0.953566796368353,0.3262378881513692,0.06060883497367797
1526330833356,-0.9662623025864043,0.3115892271305407,0.03961242084382377
1526330833372,-0.9647974364843215,0.3125658045319293,0.06158541237506654
1526330833388,-0.9569848172732129,0.3150072480354007,0.08355840390630931
1526330833404,-0.9843289845120928,0.3218432898451207,0.07379262989242363
1526330833420,-0.9633325703822386,0.26861982146944374,0.08307011520561502
1526330833436,-0.9652857251850158,0.2935225452048522,0.06695658808270366
1526330833452,-0.9618677042801558,0.28912794689860366,0.0689097428854808
1526330833468,-0.9755397878995957,0.3067063401235979,0.06256198977645511
1526330833484,-0.9672388799877929,0.29791714351110077,0.06549172198062081
1526330833500,-0.9716334782940415,0.29596398870832363,0.08014038300144932
1526330833517,-0.9511253528648815,0.3242847333485921,0.07525749599450648
1526330833533,-0.9462424658579387,0.32233157854581496,0.08355840390630931
1526330833549,-0.9438010223544673,0.315495536736095,0.055725947966735134
1526330833565,-0.9569848172732129,0.3179369802395664,0.0689097428854808
1526330833581,-0.9560082398718244,0.3272144655527578,0.06256198977645511
1526330833597,-0.9423361562523844,0.3535820553902491,0.0689097428854808
1526330833613,-0.9594262607766844,0.33112077515831206,0.08258182650492074
1526330833629,-0.9652857251850158,0.32916762035553493,0.08844129091325215
1526330833645,-0.953566796368353,0.3272144655527578,0.08355840390630931
1526330833661,-0.9540550850690472,0.3277027542534521,0.08014038300144932
1526330833677,-0.9496604867627987,0.33746852826733775,0.07867551689936647
1526330833694,-0.9516136415655758,0.3023117418173493,0.09430075532158355
1526330833710,-0.9604028381780729,0.32916762035553493,0.08844129091325215
1526330833726,-0.9301289387350269,0.3272144655527578,0.1138323033493549
1526330833742,-0.939894712748913,0.33698023956664347,0.10406652933546923
1526330833758,-0.9984893568322271,0.305241474021515,0.07623407339589505
1526330833774,-0.9618677042801558,0.2818036163881894,0.08795300221255786
1526330833790,-1.0097199969481956,0.25299458304722666,0.0776989394979779
1526330833806,-1.0814984359502557,0.22418554970626392,0.08648813611047501
1526330833822,-1.0590371557183182,0.20221255817502115,0.1499656672007328
1526330833838,-0.9789578088044557,0.13824673838406998,0.16607919432364415
1526330833854,-0.98970016021973,0.12506294346532432,0.12115663385976916
1526330833871,-0.9984893568322271,0.14605935759517852,0.12066834515907487
1526330833887,-0.9970244907301442,0.10260166323338638,0.12359807736324058
1526330833903,-1.024368657969024,0.089906157015335,0.11529716945143775
1526330833919,-1.0453650720988783,0.05816739147020655,0.07037460898756365
1526330833935,-1.0692912184328986,0.01373311970702673,0.08892957961394643
1526330833951,-1.0668497749294272,-0.03167772945754166,0.0957656214236664
1526330833967,-1.0907759212634471,-0.016540779736018862,0.11187914854657777
1526330833983,-1.0971236743724728,-0.007751583123521755,0.10553139543755208
1526330833999,-1.0497596704051269,-0.00579842832074462,0.1138323033493549
1526330834015,-1.0463416495002669,-0.008239871824216038,0.12164492256046344
1526330834031,-1.0424353398947126,-0.028259708552681673,0.1050431067368578
1526330834048,-1.015579461356527,0.004455634393835339,0.09723048752574925
1526330834064,-0.9867704280155642,-0.012634470130464592,0.10113679713130352
1526330834080,-0.9755397878995957,-0.026306553749904538,0.08746471351186358
1526330834096,-0.9613794155794615,-0.020935378042267416,0.10894941634241206
1526330834112,-0.9569848172732129,-0.01995880064087885,0.10699626153963493
1526330834128,-0.9711451895933472,-4.272526131074983E-4,0.1109025711451892
1526330834144,-0.9823758297093157,0.01861600671396957,0.11627374685282632
1526330834160,-0.98970016021973,0.024475471122300974,0.11041428244449492
1526330834176,-0.97944609750515,0.01373311970702673,0.10211337453269209
1526330834192,-0.9784695201037614,0.00982681010147246,0.10308995193408066
1526330834208,-0.9945830472266728,0.004943923094529623,0.11480888075074347
1526330834225,-1.0116731517509727,0.014709697108415298,0.10406652933546923
1526330834241,-1.0067902647440299,0.0327763790341038,0.10455481803616351
1526330834257,-1.0146028839551384,0.037659266041046635,0.13580529488059856
1526330834273,-1.0170443274586098,0.03424124513618665,0.12213321126115773
1526330834289,-1.0219272144655527,0.043030441748683756,0.10650797283894065
1526330834305,-1.0082551308461127,0.04840161745632088,0.12408636606393486
1526330834321,-0.9970244907301442,0.04888990615701516,0.09234760051880642
1526330834337,-1.0170443274586098,0.04351873044937804,0.08453498130769788
1526330834353,-1.0038605325398642,0.04644846265354374,0.07232776379034078
1526330834369,-1.008743419546807,0.04205386434729519,0.08307011520561502
1526330834385,-1.0058136873426413,0.031311512932020946,0.09088273441672357
1526330834402,-0.9975127794308385,0.05865568017090084,0.1138323033493549
1526330834418,-1.0150911726558327,0.03472953383688093,0.1109025711451892
1526330834434,-0.9901884489204242,0.03472953383688093,0.09723048752574925
1526330834450,-0.9965362020294499,0.04449530785076661,0.0957656214236664
1526330834466,-1.0116731517509727,0.07037460898756365,0.13287556267643286
1526330834482,-1.005325398641947,0.08404669260700359,0.11773861295490917
1526330834498,-0.9877470054169528,0.05621423666742942,0.0986953536278321
1526330834514,-0.9882352941176471,0.055725947966735134,0.10016021972991496
1526330834530,-0.9877470054169528,0.06646829938200938,0.089906157015335
1526330834546,-0.9950713359273671,0.06549172198062081,0.08160524910353217
1526330834563,-1.0009308003356985,0.07965209430075504,0.10846112764171778
1526330834579,-0.9843289845120928,0.06353856717784367,0.11334401464866062
1526330834595,-0.9911650263218128,0.0689097428854808,0.1372701609826814
1526330834611,-1.001907377737087,0.07428091859311792,0.1079728389410235
1526330834627,-0.9916533150225071,0.0957656214236664,0.1284809643701843
1526330834643,-1.0199740596627755,0.08795300221255786,0.1343404287785157
1526330834659,-1.022415503166247,0.1231097886625463,0.12750438696879574
1526330834675,-1.0419470511940183,0.1284809643701843,0.1109025711451892
1526330834691,-1.0468299382009612,0.13336385137712714,0.10699626153963493
1526330834707,-1.0824750133516443,0.12457465476462914,0.1079728389410235
1526330834723,-1.0849164568551157,0.12945754177157287,0.10260166323338638
1526330834740,-1.0644083314259558,0.1372701609826814,0.07525749599450648
1526330834756,-1.0624551766231782,0.1406881818875414,0.10650797283894065
1526330834772,-1.041458762493324,0.1763332570382241,0.11139085984588348
1526330834788,-1.0170443274586098,0.1856107423514155,0.08599984740978073
1526330834804,-0.9989776455329213,0.1890287632562755,0.07525749599450648
1526330834820,-1.0004425116350042,0.20758373388265827,0.06256198977645511
1526330834836,-1.0092317082475013,0.19977111467154973,0.010803387502861028
1526330834852,-0.9931181811245899,0.17779812314030696,0.01373311970702673
1526330834868,-0.9911650263218128,0.18805218585488692,0.007385366598001042
1526330834884,-0.9945830472266728,0.17486839093614126,0.004943923094529623
1526330834900,-0.9877470054169528,0.2100251773861297,0.017639429312581
1526330834917,-0.96919203479057,0.2153963530937668,0.01226825360494388
1526330834933,-0.9623559929808501,0.19879453727016116,6.103608758678547E-5
1526330834949,-0.9687037460898758,0.20856031128404684,0.0015259021896696368
1526330834965,-0.9706569008926529,0.20123598077363258,-0.005310139620050336
1526330834981,-0.9711451895933472,0.20270084687571543,0.019592584115358136
1526330834997,-0.9730983443961243,0.21783779659723823,-0.012634470130464592
1526330835013,-0.9765163653009843,0.22613870450904106,0.011779964904249596
1526330835029,-0.9799343862058443,0.23834592202639815,0.006408789196612474
1526330835045,-0.96577401388571,0.2525062943465324,0.0357061112382695
1526330835061,-0.9701686121919586,0.25348287174792095,-0.007751583123521755
1526330835077,-0.9687037460898758,0.27740901808194085,0.02008087281605242
1526330835094,-0.9638208590829329,0.2695963988708323,-0.0038452735179674846
1526330835110,-0.9745632104982072,0.27399099717708086,0.022034027618829555
1526330835126,-0.9643091477836272,0.26178377965972377,-0.008728160524910322
1526330835142,-0.9687037460898758,0.2676432440680552,-0.002868696116578917
1526330835158,-0.9892118715190357,0.269108110170138,0.02398718242160669
1526330835174,-0.9906767376211185,0.26227206836041805,0.004943923094529623
1526330835190,-0.9916533150225071,0.27203784237430373,0.032288090333409514
1526330835206,-0.9867704280155642,0.2783855954833294,0.040100709544518054
1526330835222,-0.9735866330968186,0.26813153276874946,0.04596017395284946
1526330835238,-0.97602807660029,0.2661783779659723,0.05474937056534657
1526330835255,-0.9730983443961243,0.24664682993820097,0.02789349202716096
1526330835271,-0.9745632104982072,0.24713511863889526,0.0327763790341038
1526330835287,-0.9506370641641873,0.24664682993820097,0.02935835812924381
1526330835303,-0.96577401388571,0.26813153276874946,0.020569161516746703
1526330835319,-0.97261005569543,0.2705729762722209,0.01617456321049815
1526330835335,-0.9745632104982072,0.27789730678263513,0.028381780727855244
1526330835351,-0.9755397878995957,0.25934233615625235,0.029846646829938095
1526330835367,-0.9755397878995957,0.2485999847409781,0.043030441748683756
1526330835383,-0.9809109636072328,0.2515297169451438,0.03717097734035235
1526330835399,-0.96577401388571,0.27203784237430373,0.008850232700083893
1526330835415,-0.9662623025864043,0.2764324406805523,0.01373311970702673
1526330835432,-0.9672388799877929,0.2676432440680552,0.012756542305638163
1526330835448,-0.9564965285725187,0.2705729762722209,0.019104295414663852
1526330835464,-0.9770046540016786,0.27203784237430373,0.033752956435492365
1526330835480,-0.9843289845120928,0.26813153276874946,0.040100709544518054
1526330835496,-0.9960479133287556,0.27106126497291516,0.031311512932020946
1526330835512,-0.9892118715190357,0.26569008926527804,0.01617456321049815
1526330835528,-1.0043488212405585,0.25397116044861523,0.05035477225909801
1526330835544,-0.9901884489204242,0.2456702525368124,0.05279621576256943
1526330835560,-0.9809109636072328,0.2549477378500038,0.05865568017090084
1526330835576,-0.9867704280155642,0.2637369344625009,0.03668268863965807
1526330835592,-0.9872587167162585,0.2573891813534752,0.06158541237506654
1526330835609,-0.9926298924238957,0.25641260395208665,0.06207370107576082
1526330835625,-0.9984893568322271,0.24371709773403527,0.05816739147020655
1526330835641,-1.0082551308461127,0.24078736552986957,0.03179980163271523
1526330835657,-1.0014190890363928,0.23590447852292673,0.06549172198062081
1526330835673,-0.9916533150225071,0.22418554970626392,0.055725947966735134
1526330835689,-0.9980010681315328,0.21197833218890683,0.07086289768825793
1526330835705,-0.9960479133287556,0.21686121919584966,0.06549172198062081
1526330835721,-1.0282749675745784,0.22906843671320676,0.06305027847714939
1526330835737,-1.0439002059967954,0.21832608529793252,0.07135118638895221
1526330835753,-1.0463416495002669,0.18023956664377838,0.06402685587853796
1526330835769,-1.0522011139085983,0.17926298924238981,0.07623407339589505
1526330835786,-1.0355992980849926,0.17242694743266984,0.07965209430075504
1526330835802,-0.9911650263218128,0.15045395590142707,0.089906157015335
1526330835818,-0.9491721980621044,0.15777828641184133,0.0508430609597923
1526330835834,-0.9564965285725187,0.1284809643701843,0.049378194857709445
1526330835850,-0.9662623025864043,0.14605935759517852,0.06353856717784367
1526330835866,-0.9110856794079498,0.15680170901045276,0.08404669260700359
1526330835882,-0.946730754558633,0.09625391012436069,0.07232776379034078
1526330835898,-1.0199740596627755,0.08892957961394643,0.08404669260700359
1526330835914,-0.9999542229343099,0.11725032425421489,0.10553139543755208
1526330835930,-1.0038605325398642,0.10699626153963493,0.1167620355535206
1526330835947,-0.9975127794308385,0.0986953536278321,0.10650797283894065
1526330835963,-0.9838406958113985,0.1231097886625463,0.07818722819867219
1526330835979,-0.9970244907301442,0.09820706492713782,0.07379262989242363
1526330835995,-1.0072785534447242,0.08404669260700359,0.07135118638895221
1526330836011,-1.029251544975967,0.07965209430075504,0.07916380560006075
1526330836027,-1.041458762493324,0.04596017395284946,0.08404669260700359
1526330836043,-1.0248569466697184,0.033752956435492365,0.06646829938200938
1526330836059,-1.0204623483634698,0.04205386434729519,0.06695658808270366
1526330836075,-1.001907377737087,0.05523765926604085,0.055725947966735134
