Timestamp (ms),Accel X (g),Accel Y (g),Accel Z (g)
1526328912500,-0.0018921187151903496,-0.004333562218661768,1.0244907301441977
1526328912516,-0.0018921187151903496,-0.015564202334630295,1.0176546883344777
1526328912532,-0.004821850919356052,-0.01605249103532458,1.0396276798657205
1526328912548,-0.009216449225604606,-0.011169604028381741,1.021560997940032
1526328912564,-0.006775005722133187,-0.01605249103532458,1.0415808346684976
1526328912581,-0.01361104753185316,-0.01605249103532458,1.028397039749752
1526328912597,-0.006775005722133187,-0.013122758831158876,1.0244907301441977
1526328912613,-0.004333562218661768,-0.011657892729076025,1.0230258640421148
1526328912629,-0.007751583123521755,-0.00970473792629889,1.0445105668726633
1526328912645,-0.007263294422827471,-0.01995880064087885,1.0230258640421148
1526328912661,-0.005310139620050336,-0.015564202334630295,1.0401159685664148
1526328912677,-0.010193026626993174,-0.018493934538795997,1.0366979476615548
1526328912693,-0.014587624933241727,-0.018493934538795997,1.023514152742809
1526328912709,-0.010681315327687457,-0.01995880064087885,1.0288853284504462
1526328912725,-0.008239871824216038,-0.014099336232547444,1.0293736171511405
1526328912741,-0.014587624933241727,-0.00579842832074462,1.033768215457389
1526328912757,-0.0023804074158846333,-0.011169604028381741,1.0323033493553062
1526328912773,-0.007751583123521755,-0.01898222323949028,1.0327916380560005
1526328912789,-0.00970473792629889,-0.020935378042267416,1.0196078431372548
1526328912805,-0.0014038300144960658,-0.012634470130464592,1.0279087510490577
1526328912821,-0.004333562218661768,-0.010193026626993174,1.0210727092393377
1526328912837,-0.008728160524910322,-0.014099336232547444,1.0327916380560005
1526328912853,-0.00579842832074462,-0.01361104753185316,1.0293736171511405
1526328912869,-0.010681315327687457,-0.010681315327687457,1.0435339894712747
1526328912885,-0.00970473792629889,-0.010681315327687457,1.0332799267566948
1526328912901,-0.00970473792629889,-0.014587624933241727,1.0425574120698862
1526328912917,-0.008239871824216038,-0.016540779736018862,1.0401159685664148
1526328912933,-0.008239871824216038,-0.008239871824216038,1.0259555962462805
1526328912949,-0.00970473792629889,-0.013122758831158876,1.028397039749752
1526328912966,-0.010193026626993174,-0.013122758831158876,1.0274204623483634
1526328912982,-0.009216449225604606,-0.0214236667429617,1.0308384832532234
1526328912998,-0.0038452735179674846,-0.014099336232547444,1.0230258640421148
1526328913014,-0.005310139620050336,-0.01898222323949028,1.0225375753414205
1526328913030,-0.013122758831158876,-0.022400244144350268,1.037186236362249
1526328913046,-0.010193026626993174,-0.015564202334630295,1.0259555962462805
1526328913062,-0.013122758831158876,-0.010193026626993174,1.0327916380560005
1526328913078,-0.006775005722133187,-0.01898222323949028,1.024979018844892
1526328913094,-0.004821850919356052,-0.016540779736018862,1.0298619058518348
1526328913110,-0.008239871824216038,-0.01361104753185316,1.0313267719539176
1526328913126,-0.006775005722133187,-0.019470511940184565,1.0449988555733576
1526328913151,-0.006775005722133187,-0.011169604028381741,1.0313267719539176
1526328913167,-0.007751583123521755,-0.015075913633936011,1.031815060654612
1526328913183,-0.007263294422827471,-0.018493934538795997,1.0274204623483634
1526328913199,-0.014099336232547444,-0.010681315327687457,1.0225375753414205
1526328913215,-0.013122758831158876,-0.023376821545738835,1.0171663996337834
1526328913231,-0.002868696116578917,-0.012634470130464592,1.0323033493553062
1526328913247,-0.004333562218661768,-0.014587624933241727,1.007888914320592
1526328913263,-0.004333562218661768,-0.010681315327687457,1.028397039749752
1526328913279,6.103608758678547E-5,-0.018493934538795997,1.0279087510490577
1526328913295,-0.010681315327687457,-0.007751583123521755,1.033768215457389
1526328913311,-0.015075913633936011,-0.01605249103532458,1.0293736171511405
1526328913327,-0.009216449225604606,-0.01605249103532458,1.0376745250629433
1526328913344,-0.0038452735179674846,-0.014099336232547444,1.0259555962462805
1526328913360,-0.014587624933241727,-0.01898222323949028,1.0225375753414205
1526328913376,-0.007751583123521755,-0.020935378042267416,1.0391393911650262
1526328913392,-0.003356984817273201,-0.018005645838101714,1.021560997940032
1526328913408,-0.012146181429770309,-0.013122758831158876,1.0376745250629433
1526328913424,-0.004821850919356052,-0.014099336232547444,1.007888914320592
1526328913440,-0.015564202334630295,-0.018493934538795997,1.0396276798657205
1526328913456,-0.0018921187151903496,-0.016540779736018862,1.0259555962462805
1526328913472,-0.010681315327687457,-0.018493934538795997,1.0366979476615548
1526328913488,-0.002868696116578917,-0.01898222323949028,1.0323033493553062
1526328913504,-0.007263294422827471,-0.019470511940184565,1.0357213702601662
1526328913520,-0.009216449225604606,-0.008239871824216038,1.0288853284504462
1526328913537,-0.009216449225604606,-0.020935378042267416,1.0210727092393377
1526328913553,-0.007751583123521755,-0.020935378042267416,1.0357213702601662
1526328913569,-0.00579842832074462,-0.015564202334630295,1.0342565041580833
1526328913585,-0.0038452735179674846,-0.018005645838101714,1.0323033493553062
1526328913601,-0.004333562218661768,-0.016540779736018862,1.0293736171511405
1526328913617,-0.012634470130464592,-0.01361104753185316,1.0200961318379491
1526328913633,-0.004821850919356052,-0.014099336232547444,1.021560997940032
1526328913649,-0.00970473792629889,-0.01751735713740743,1.0254673075455862
1526328913665,-0.012634470130464592,-0.018005645838101714,1.0254673075455862
1526328913681,-0.0023804074158846333,-0.020447089341573133,1.0176546883344777
1526328913697,-0.008239871824216038,-0.004333562218661768,1.0362096589608605
1526328913713,-0.007751583123521755,-0.010681315327687457,1.026932173647669
1526328913729,5.493247882810692E-4,-0.0214236667429617,1.0308384832532234
1526328913746,-0.003356984817273201,-0.014099336232547444,1.0259555962462805
1526328913762,-0.008728160524910322,-0.015564202334630295,1.0288853284504462
1526328913778,-0.010193026626993174,-0.016540779736018862,1.0279087510490577
1526328913801,-0.00970473792629889,-0.020935378042267416,1.0298619058518348
1526328913817,-0.010193026626993174,-0.018493934538795997,1.0254673075455862
1526328913833,-9.15541313801782E-4,-0.009216449225604606,1.0088654917219806
1526328913850,0.001037613488975353,-0.023376821545738835,1.0342565041580833
1526328913866,-0.015075913633936011,-0.01995880064087885,1.0279087510490577
1526328913882,-0.008728160524910322,-0.020935378042267416,1.0103303578240634
1526328913898,-0.0014038300144960658,-0.00579842832074462,1.0254673075455862
1526328913914,-0.010681315327687457,-0.014587624933241727,1.0279087510490577
1526328913930,-0.01361104753185316,-0.01605249103532458,1.0288853284504462
1526328913946,-0.008239871824216038,-0.007751583123521755,1.0225375753414205
1526328913962,-0.004333562218661768,-0.013122758831158876,1.0230258640421148
1526328913978,-0.004821850919356052,-0.010681315327687457,1.0366979476615548
1526328913995,-0.004821850919356052,-0.012634470130464592,1.0210727092393377
1526328914011,-0.005310139620050336,-0.010193026626993174,1.023514152742809
1526328914027,-0.0018921187151903496,-0.010193026626993174,1.0293736171511405
1526328914043,-0.007751583123521755,-0.012634470130464592,1.033768215457389
1526328914059,0.0020141908903639205,-0.010193026626993174,1.0293736171511405
1526328914075,-0.014587624933241727,-0.01605249103532458,1.0332799267566948
1526328914091,-0.004333562218661768,-0.014587624933241727,1.024979018844892
1526328914107,-0.012146181429770309,-0.008728160524910322,1.0259555962462805
1526328914123,-0.006775005722133187,-0.015075913633936011,1.035233081559472
1526328914140,-0.007751583123521755,-0.009216449225604606,1.0259555962462805
1526328914156,-0.008728160524910322,-0.008728160524910322,1.0157015335317006
1526328914172,-0.011169604028381741,-0.01751735713740743,1.031815060654612
1526328914188,-0.010193026626993174,-0.014099336232547444,1.0298619058518348
1526328914204,-0.00579842832074462,-0.00579842832074462,1.0391393911650262
1526328914220,-0.011169604028381741,-0.024353398947127403,1.0332799267566948
1526328914236,-0.00579842832074462,-0.015075913633936011,1.0366979476615548
1526328914252,-0.014587624933241727,-0.01898222323949028,1.028397039749752
1526328914268,0.0015259021896696368,-0.016540779736018862,1.0459754329747462
1526328914285,-0.009216449225604606,-0.020447089341573133,1.0191195544365605
1526328914301,6.103608758678547E-5,-0.009216449225604606,1.0200961318379491
1526328914317,-0.0038452735179674846,-0.018493934538795997,1.0323033493553062
1526328914333,-0.005310139620050336,-0.011169604028381741,1.0445105668726633
1526328914349,-0.015564202334630295,-0.015564202334630295,1.0176546883344777
1526328914365,-0.00970473792629889,-0.006286717021438903,1.0240024414435034
1526328914381,-0.012146181429770309,-0.016540779736018862,1.0254673075455862
1526328914397,-0.00970473792629889,-0.020935378042267416,1.023514152742809
1526328914413,-0.002868696116578917,-0.008728160524910322,1.033768215457389
1526328914430,-0.00579842832074462,-0.013122758831158876,1.033768215457389
1526328914452,-0.005310139620050336,-0.01605249103532458,1.021560997940032
1526328914468,-0.008728160524910322,-0.012634470130464592,1.0293736171511405
1526328914484,-0.004821850919356052,-0.011169604028381741,1.0298619058518348
1526328914500,-0.004333562218661768,-0.009216449225604606,1.024979018844892
1526328914517,-0.00579842832074462,-0.01751735713740743,1.0332799267566948
1526328914533,-0.00579842832074462,-0.007751583123521755,1.0127718013275349
1526328914549,-0.012634470130464592,-0.011169604028381741,1.028397039749752
1526328914565,-0.008239871824216038,-0.01605249103532458,1.0293736171511405
1526328914581,-0.004333562218661768,-0.011169604028381741,1.0362096589608605
1526328914597,-0.011169604028381741,-0.014099336232547444,1.0152132448310063
1526328914613,-0.0023804074158846333,-0.020447089341573133,1.0200961318379491
1526328914630,-0.003356984817273201,-0.015564202334630295,1.037186236362249
1526328914646,-0.007751583123521755,-0.010681315327687457,1.0308384832532234
1526328914662,-0.002868696116578917,-0.008728160524910322,1.0323033493553062
1526328914678,-0.010681315327687457,-0.01751735713740743,1.024979018844892
1526328914694,-0.006775005722133187,-0.002868696116578917,1.023514152742809
1526328914710,-0.00579842832074462,-0.009216449225604606,1.0254673075455862
1526328914726,-0.0014038300144960658,-0.008239871824216038,1.0254673075455862
1526328914742,-0.007751583123521755,-0.013122758831158876,1.0396276798657205
1526328914759,-0.010681315327687457,-0.00970473792629889,1.0205844205386434
1526328914775,-0.015075913633936011,-0.006775005722133187,1.0132600900282291
1526328914791,5.493247882810692E-4,-0.02386511024643312,1.0288853284504462
1526328914807,0.001037613488975353,-0.013122758831158876,1.0279087510490577
1526328914823,-0.010193026626993174,-0.018493934538795997,1.035233081559472
1526328914839,-0.0038452735179674846,-0.015075913633936011,1.0293736171511405
1526328914855,-9.15541313801782E-4,-0.015075913633936011,1.0362096589608605
1526328914872,-0.005310139620050336,-0.010193026626993174,1.0279087510490577
1526328914888,-0.006775005722133187,-0.019470511940184565,1.0230258640421148
1526328914904,-0.007263294422827471,-0.014099336232547444,1.0171663996337834
1526328914920,-0.007263294422827471,-0.019470511940184565,1.026932173647669
1526328914936,-0.00579842832074462,-0.010193026626993174,1.0342565041580833
1526328914952,-0.011169604028381741,-0.011169604028381741,1.0357213702601662
1526328914968,-0.002868696116578917,-0.01995880064087885,1.0391393911650262
1526328914985,-0.002868696116578917,-0.013122758831158876,1.0254673075455862
1526328915001,-0.004333562218661768,-0.018493934538795997,1.0225375753414205
1526328915017,-0.014587624933241727,-0.01361104753185316,1.0279087510490577
1526328915033,-0.007751583123521755,-0.016540779736018862,1.0205844205386434
1526328915049,-0.0023804074158846333,-0.01605249103532458,1.0298619058518348
1526328915065,-0.008239871824216038,-0.013122758831158876,1.0332799267566948
1526328915081,6.103608758678547E-5,-0.014587624933241727,1.0210727092393377
1526328915103,-0.007751583123521755,-0.006775005722133187,1.0279087510490577
1526328915119,-0.008239871824216038,-0.015564202334630295,1.0259555962462805
1526328915135,-0.008728160524910322,-0.010681315327687457,1.0288853284504462
1526328915151,-0.0023804074158846333,-0.008239871824216038,1.0332799267566948
1526328915168,-0.013122758831158876,-0.018005645838101714,1.0230258640421148
1526328915184,-0.00970473792629889,-0.006775005722133187,1.0391393911650262
1526328915200,-0.003356984817273201,-0.01605249103532458,1.0196078431372548
1526328915216,-0.005310139620050336,-0.027283131151293105,1.0308384832532234
1526328915232,-0.011169604028381741,-0.015075913633936011,1.0274204623483634
1526328915248,-0.012634470130464592,-0.011169604028381741,1.0279087510490577
1526328915265,-0.011169604028381741,-0.01361104753185316,1.0279087510490577
1526328915281,-0.006775005722133187,-0.004333562218661768,1.0259555962462805
1526328915297,6.103608758678547E-5,-0.00970473792629889,1.040604257267109
1526328915313,-0.003356984817273201,-0.025818265049210254,1.026932173647669
1526328915329,-0.012634470130464592,-0.014587624933241727,1.035233081559472
1526328915345,-0.00579842832074462,-0.019470511940184565,1.0074006256198977
1526328915362,-0.01361104753185316,-0.02288853284504455,1.0279087510490577
1526328915378,-0.008239871824216038,-0.015564202334630295,1.0288853284504462
1526328915394,-0.008239871824216038,-0.011169604028381741,1.0357213702601662
1526328915410,-0.011169604028381741,-0.019470511940184565,1.0308384832532234
1526328915426,-0.007263294422827471,-0.01361104753185316,1.0449988555733576
1526328915442,-0.004821850919356052,-0.014099336232547444,1.0161898222323948
1526328915459,-0.00579842832074462,-0.006286717021438903,1.0396276798657205
1526328915475,-0.008728160524910322,-0.018005645838101714,1.0357213702601662
1526328915491,-0.006775005722133187,-0.005310139620050336,1.0308384832532234
1526328915507,-0.009216449225604606,-0.018493934538795997,1.023514152742809
1526328915523,-0.010193026626993174,-0.010193026626993174,1.0362096589608605
1526328915539,-0.018005645838101714,-0.015564202334630295,1.026932173647669
1526328915556,-0.005310139620050336,-0.01751735713740743,1.0279087510490577
1526328915572,-0.008728160524910322,-0.014587624933241727,1.0362096589608605
1526328915588,-0.00579842832074462,-0.015564202334630295,1.0200961318379491
1526328915604,-0.013122758831158876,-0.02288853284504455,1.0362096589608605
1526328915620,-0.009216449225604606,-0.006286717021438903,1.021560997940032
1526328915636,-0.004821850919356052,-0.014099336232547444,1.0205844205386434
1526328915652,-0.00579842832074462,-0.0214236667429617,1.0391393911650262
1526328915669,-0.004333562218661768,-0.013122758831158876,1.0342565041580833
1526328915685,-0.014587624933241727,-0.014587624933241727,1.0225375753414205
1526328915701,-0.0018921187151903496,-0.015075913633936011,1.0259555962462805
1526328915717,-0.013122758831158876,-0.010681315327687457,1.0274204623483634
1526328915733,-0.00970473792629889,-0.0214236667429617,1.028397039749752
1526328915754,-0.010681315327687457,-0.009216449225604606,1.0366979476615548
1526328915770,-0.0018921187151903496,-0.008239871824216038,1.0274204623483634
1526328915787,-0.004821850919356052,-0.015075913633936011,1.0176546883344777
1526328915803,0.0020141908903639205,-0.018005645838101714,1.011306935225452
1526328915819,-0.004333562218661768,-0.009216449225604606,1.0186312657358663
1526328915835,-0.015075913633936011,-0.010681315327687457,1.0230258640421148
1526328915851,-0.010193026626993174,-0.01361104753185316,1.0313267719539176
1526328915867,0.003479056992446772,-0.013122758831158876,1.0279087510490577
1526328915884,-0.008728160524910322,-0.005310139620050336,1.0279087510490577
1526328915900,-0.007263294422827471,-0.01751735713740743,1.024979018844892
1526328915916,-0.004821850919356052,-0.018493934538795997,1.040604257267109
1526328915932,-0.010681315327687457,-0.013122758831158876,1.023514152742809
1526328915948,-0.012146181429770309,-0.013122758831158876,1.0132600900282291
1526328915965,-0.008239871824216038,-0.014099336232547444,1.0410925459678033
1526328915981,6.103608758678547E-5,-0.012634470130464592,1.028397039749752
1526328915997,-0.012634470130464592,-0.014587624933241727,1.0244907301441977
1526328916013,-0.002868696116578917,-0.01751735713740743,1.0396276798657205
1526328916029,-0.003356984817273201,-0.011169604028381741,1.0288853284504462
1526328916045,-0.007751583123521755,-0.014099336232547444,1.0069123369192035
1526328916062,-0.00579842832074462,-0.01605249103532458,1.0191195544365605
1526328916078,-0.006775005722133187,-0.010681315327687457,1.024979018844892
1526328916094,-0.007751583123521755,-0.008728160524910322,1.035233081559472
1526328916110,-0.008239871824216038,-0.008728160524910322,1.0240024414435034
1526328916126,-0.0038452735179674846,-0.015564202334630295,1.0298619058518348
1526328916143,-0.012146181429770309,-0.01995880064087885,1.0157015335317006
1526328916159,-0.006775005722133187,-0.007751583123521755,1.0259555962462805
1526328916175,-0.0014038300144960658,-0.016540779736018862,1.0469520103761347
1526328916191,-0.004333562218661768,-0.01605249103532458,1.0171663996337834
1526328916207,-9.15541313801782E-4,-0.011169604028381741,1.0205844205386434
1526328916223,-0.007751583123521755,-0.008728160524910322,1.0323033493553062
1526328916240,-0.004333562218661768,-0.01361104753185316,1.0362096589608605
1526328916256,-0.004333562218661768,-0.01605249103532458,1.0161898222323948
1526328916272,-0.007751583123521755,-0.012634470130464592,1.0191195544365605
1526328916288,-0.008728160524910322,-0.010193026626993174,1.0191195544365605
1526328916304,-0.013122758831158876,-0.022400244144350268,1.0415808346684976
1526328916321,6.103608758678547E-5,-0.0038452735179674846,1.028397039749752
1526328916337,-0.00970473792629889,-0.01995880064087885,1.0240024414435034
1526328916353,0.0015259021896696368,-0.020935378042267416,1.0313267719539176
1526328916369,-0.008728160524910322,-0.012634470130464592,1.031815060654612
1526328916385,0.001037613488975353,-0.020935378042267416,1.0357213702601662
1526328916405,-0.009216449225604606,-0.01751735713740743,1.0171663996337834
1526328916422,-0.002868696116578917,-0.01751735713740743,1.0293736171511405
1526328916438,-0.016540779736018862,-0.016540779736018862,1.0254673075455862
1526328916454,-0.012634470130464592,-0.010193026626993174,1.0396276798657205
1526328916470,-0.007263294422827471,-0.01995880064087885,1.0288853284504462
1526328916486,-0.007751583123521755,-0.011169604028381741,1.0323033493553062
1526328916503,-0.014099336232547444,-0.011169604028381741,1.0327916380560005
1526328916519,-0.014099336232547444,-0.015075913633936011,1.023514152742809
1526328916535,-0.008728160524910322,-0.014587624933241727,1.0210727092393377
1526328916551,-0.0023804074158846333,-0.012634470130464592,1.0362096589608605
1526328916567,-0.010193026626993174,-0.019470511940184565,1.0274204623483634
1526328916584,-0.015075913633936011,-0.012634470130464592,1.031815060654612
1526328916600,-0.0038452735179674846,-0.009216449225604606,1.0279087510490577
1526328916616,-0.005310139620050336,-0.014587624933241727,1.0279087510490577
1526328916632,-0.018005645838101714,-0.015564202334630295,1.031815060654612
1526328916648,-0.002868696116578917,-0.016540779736018862,1.0464637216754404
1526328916665,-0.004821850919356052,-0.015075913633936011,1.0396276798657205
1526328916681,-0.0023804074158846333,-0.011169604028381741,1.0298619058518348
1526328916697,-0.008728160524910322,-0.010681315327687457,1.0205844205386434
1526328916713,-0.016540779736018862,-0.016540779736018862,1.0244907301441977
1526328916729,-0.004333562218661768,-0.01898222323949028,1.0293736171511405
1526328916746,-0.012146181429770309,-0.01361104753185316,1.021560997940032
1526328916762,-0.008239871824216038,-0.009216449225604606,1.028397039749752
1526328916778,-0.01605249103532458,-0.018493934538795997,1.028397039749752
1526328916794,-0.002868696116578917,-0.02288853284504455,1.0274204623483634
1526328916810,-0.016540779736018862,-0.011169604028381741,1.0225375753414205
1526328916827,-0.01605249103532458,-0.01751735713740743,1.0254673075455862
1526328916843,-0.008728160524910322,-0.009216449225604606,1.0274204623483634
1526328916859,-0.013122758831158876,-0.022400244144350268,1.0205844205386434
1526328916875,-0.01361104753185316,-0.00970473792629889,1.028397039749752
1526328916891,-0.0014038300144960658,-0.013122758831158876,1.0327916380560005
1526328916908,-0.008239871824216038,-0.013122758831158876,1.0259555962462805
1526328916924,0.004455634393835339,-0.014099336232547444,1.0225375753414205
1526328916940,-0.013122758831158876,-0.010681315327687457,1.0366979476615548
1526328916956,-0.014099336232547444,-0.013122758831158876,1.0332799267566948
1526328916972,-0.004333562218661768,-0.015564202334630295,1.0332799267566948
1526328916989,-0.010193026626993174,-0.01361104753185316,1.0288853284504462
1526328917005,-0.0014038300144960658,-0.01751735713740743,1.0308384832532234
1526328917021,-0.015075913633936011,-0.011657892729076025,1.0308384832532234
1526328917037,-0.00970473792629889,-0.014587624933241727,1.0274204623483634
1526328917057,-0.009216449225604606,-0.002868696116578917,1.0166781109330891
1526328917073,-0.0023804074158846333,-0.006775005722133187,1.0210727092393377
1526328917089,-0.0038452735179674846,-0.008239871824216038,1.0230258640421148
1526328917105,-0.0038452735179674846,-0.006286717021438903,1.0244907301441977
1526328917122,-0.004821850919356052,-0.018493934538795997,1.0161898222323948
1526328917138,-0.01605249103532458,-0.010193026626993174,1.0342565041580833
1526328917154,-0.015075913633936011,-0.01898222323949028,1.0323033493553062
1526328917170,-0.004333562218661768,-0.015075913633936011,1.033768215457389
1526328917186,-0.0018921187151903496,-0.015075913633936011,1.031815060654612
1526328917203,-0.008239871824216038,-0.012634470130464592,1.0171663996337834
1526328917219,-0.004821850919356052,-0.015075913633936011,1.0108186465247577
1526328917235,-0.012146181429770309,-0.02777141985198739,1.0142366674296177
1526328917251,0.0025024795910582043,-0.010681315327687457,1.0161898222323948
1526328917268,-0.006775005722133187,-0.01361104753185316,1.0259555962462805
1526328917284,-0.00970473792629889,-0.011657892729076025,1.0293736171511405
1526328917300,-0.004333562218661768,-0.006286717021438903,1.0327916380560005
1526328917316,-0.008239871824216038,-0.01361104753185316,1.0298619058518348
1526328917332,-0.00579842832074462,-0.014587624933241727,1.024979018844892
1526328917349,-0.0038452735179674846,-0.005310139620050336,1.035233081559472
1526328917365,-0.011169604028381741,-0.00579842832074462,1.0132600900282291
1526328917381,6.103608758678547E-5,-0.011657892729076025,1.040604257267109
1526328917397,-0.00579842832074462,-0.01605249103532458,1.031815060654612
1526328917413,-0.002868696116578917,-0.013122758831158876,1.0323033493553062
1526328917430,-0.0023804074158846333,-0.018005645838101714,1.0088654917219806
1526328917446,-0.011169604028381741,-0.01605249103532458,1.040604257267109
1526328917462,-0.011169604028381741,-0.009216449225604606,1.037186236362249
1526328917478,-0.010681315327687457,-0.018493934538795997,1.0327916380560005
1526328917495,-0.010681315327687457,-0.012634470130464592,1.0332799267566948
1526328917511,-0.00579842832074462,-0.01361104753185316,1.0205844205386434
1526328917527,-0.0018921187151903496,-0.024353398947127403,1.0259555962462805
1526328917543,6.103608758678547E-5,-0.013122758831158876,1.023514152742809
1526328917559,-0.01751735713740743,-0.013122758831158876,1.0191195544365605
1526328917576,-0.010681315327687457,-0.010193026626993174,1.0186312657358663
1526328917592,-0.00970473792629889,-0.010193026626993174,1.0449988555733576
1526328917608,5.493247882810692E-4,-0.009216449225604606,1.0186312657358663
1526328917624,-0.005310139620050336,-0.010681315327687457,1.0225375753414205
1526328917640,-0.00970473792629889,-0.01751735713740743,1.0240024414435034
1526328917657,-0.010681315327687457,-0.012634470130464592,1.033768215457389
1526328917673,-0.009216449225604606,-0.011657892729076025,1.0342565041580833
1526328917689,-0.005310139620050336,-0.006286717021438903,1.0230258640421148
1526328917708,-0.008728160524910322,-0.00970473792629889,1.0342565041580833
1526328917724,-0.0023804074158846333,-0.01898222323949028,1.0274204623483634
1526328917741,-0.01361104753185316,-0.010681315327687457,1.033768215457389
1526328917757,-0.007751583123521755,-0.011657892729076025,1.024979018844892
1526328917773,-0.002868696116578917,-0.018493934538795997,1.0186312657358663
1526328917789,-0.00579842832074462,-0.014587624933241727,1.023514152742809
1526328917806,-0.012146181429770309,-0.00579842832074462,1.0313267719539176
1526328917822,-0.011169604028381741,-0.018005645838101714,1.0308384832532234
1526328917838,-0.012146181429770309,-0.014587624933241727,1.028397039749752
1526328917854,-0.008239871824216038,-0.013122758831158876,1.0298619058518348
1526328917871,-0.007263294422827471,-0.01361104753185316,1.0230258640421148
1526328917887,-0.004821850919356052,-0.015075913633936011,1.0288853284504462
1526328917903,-0.009216449225604606,-0.01361104753185316,1.026932173647669
1526328917919,-0.011169604028381741,-0.014587624933241727,1.0313267719539176
1526328917935,-0.005310139620050336,-0.011169604028381741,1.0279087510490577
1526328917952,-0.008728160524910322,-0.016540779736018862,1.0313267719539176
1526328917968,-0.004821850919356052,-0.0214236667429617,1.0332799267566948
1526328917984,-0.010193026626993174,-0.018005645838101714,1.0327916380560005
1526328918000,-0.010681315327687457,-0.018005645838101714,1.0366979476615548
1526328918017,-0.007263294422827471,-0.016540779736018862,1.021560997940032
1526328918033,-0.008239871824216038,-0.011657892729076025,1.0254673075455862
1526328918049,-0.006775005722133187,-0.008239871824216038,1.0342565041580833
1526328918065,-0.00970473792629889,-0.011169604028381741,1.0259555962462805
1526328918081,-0.008239871824216038,-0.003356984817273201,1.0415808346684976
1526328918098,-0.004333562218661768,-0.009216449225604606,1.024979018844892
1526328918114,-0.010681315327687457,-0.006286717021438903,1.0196078431372548
1526328918130,-0.0023804074158846333,-0.015564202334630295,1.028397039749752
1526328918146,-0.004333562218661768,-0.018005645838101714,1.023514152742809
1526328918163,-0.014587624933241727,-0.019470511940184565,1.0274204623483634
1526328918179,-0.006775005722133187,-0.010681315327687457,1.0210727092393377
1526328918195,-0.004821850919356052,-0.018493934538795997,1.0323033493553062
1526328918211,-0.009216449225604606,-0.014587624933241727,1.021560997940032
1526328918227,-0.008728160524910322,-0.01605249103532458,1.024979018844892
1526328918244,-0.014587624933241727,-0.011169604028381741,1.0396276798657205
1526328918260,-0.011169604028381741,-0.00970473792629889,1.0362096589608605
1526328918276,-0.012634470130464592,-0.015075913633936011,1.0279087510490577
1526328918292,-0.00579842832074462,-0.014587624933241727,1.0225375753414205
1526328918309,-0.00970473792629889,-0.008239871824216038,1.0332799267566948
1526328918325,-0.008728160524910322,-0.01605249103532458,1.024979018844892
1526328918341,-0.012146181429770309,-0.01361104753185316,1.0127718013275349
1526328918360,-0.006775005722133187,-0.014587624933241727,1.0240024414435034
1526328918376,-0.010681315327687457,-0.01361104753185316,1.0376745250629433
1526328918392,-0.011169604028381741,-0.014587624933241727,1.0279087510490577
1526328918409,-0.00970473792629889,-0.00970473792629889,1.0376745250629433
1526328918425,-0.0038452735179674846,-0.010681315327687457,1.0230258640421148
1526328918441,-0.007751583123521755,-0.018493934538795997,1.028397039749752
1526328918457,5.493247882810692E-4,-0.01605249103532458,1.031815060654612
1526328918474,-0.0014038300144960658,-0.014587624933241727,1.0288853284504462
1526328918490,-0.008728160524910322,-0.011169604028381741,1.0293736171511405
1526328918506,-0.007263294422827471,-0.010681315327687457,1.040604257267109
1526328918522,0.0015259021896696368,-0.013122758831158876,1.0274204623483634
1526328918538,-0.004821850919356052,-0.013122758831158876,1.035233081559472
1526328918555,-0.004821850919356052,-0.018493934538795997,1.0342565041580833
1526328918571,-0.009216449225604606,-0.010681315327687457,1.026932173647669
1526328918587,-0.010681315327687457,-0.011657892729076025,1.0342565041580833
1526328918603,-0.003356984817273201,-0.010681315327687457,1.0435339894712747
1526328918620,-0.002868696116578917,-0.014099336232547444,1.021560997940032
1526328918636,-0.014587624933241727,-0.02532997634851597,1.0196078431372548
1526328918652,-0.007263294422827471,-0.01361104753185316,1.0415808346684976
1526328918668,-0.012146181429770309,-0.014099336232547444,1.0244907301441977
1526328918685,-0.007751583123521755,-0.01605249103532458,1.0254673075455862
1526328918701,-0.008728160524910322,-0.011169604028381741,1.0323033493553062
1526328918717,-0.005310139620050336,-0.01751735713740743,1.028397039749752
1526328918733,-0.018005645838101714,-0.014587624933241727,1.0293736171511405
1526328918750,-0.004333562218661768,-0.011169604028381741,1.0171663996337834
1526328918766,-0.010681315327687457,-0.0214236667429617,1.0366979476615548
1526328918782,-0.0023804074158846333,-0.010681315327687457,1.0357213702601662
1526328918798,-0.008728160524910322,-0.022400244144350268,1.0274204623483634
1526328918814,-0.008239871824216038,-0.020447089341573133,1.0293736171511405
1526328918831,-0.0038452735179674846,-0.010681315327687457,1.0244907301441977
1526328918847,-0.009216449225604606,-0.01751735713740743,1.0288853284504462
1526328918863,-0.014099336232547444,-0.011169604028381741,1.031815060654612
1526328918879,-0.006775005722133187,-0.024353398947127403,1.0244907301441977
1526328918896,-0.009216449225604606,-0.024841687647821686,1.0381628137636376
1526328918912,-0.013122758831158876,-0.013122758831158876,1.023514152742809
1526328918928,-0.008728160524910322,-0.016540779736018862,1.0420691233691919
1526328918944,-0.004821850919356052,-0.012634470130464592,1.0415808346684976
1526328918961,-0.008239871824216038,-0.020935378042267416,1.0152132448310063
1526328918977,-0.002868696116578917,-0.008728160524910322,1.0376745250629433
1526328918993,-0.012634470130464592,-0.015564202334630295,1.0259555962462805
1526328919012,-0.00970473792629889,-0.008239871824216038,1.026932173647669
1526328919028,-0.0038452735179674846,-0.015075913633936011,1.031815060654612
1526328919044,-0.007751583123521755,-0.022400244144350268,1.0230258640421148
1526328919060,-0.01361104753185316,-0.016540779736018862,1.0332799267566948
1526328919077,-0.013122758831158876,-0.014099336232547444,1.0254673075455862
1526328919093,-0.002868696116578917,-0.01605249103532458,1.0122835126268406
1526328919109,-0.004821850919356052,-0.012634470130464592,1.0259555962462805
1526328919125,-0.011169604028381741,-0.013122758831158876,1.033768215457389
1526328919141,-0.0023804074158846333,-0.010681315327687457,1.0240024414435034
1526328919158,-0.0038452735179674846,-0.018005645838101714,1.0210727092393377
1526328919174,-0.004821850919356052,-0.024353398947127403,1.0410925459678033
1526328919190,-0.006775005722133187,-0.008728160524910322,1.037186236362249
1526328919206,0.0020141908903639205,-0.007751583123521755,1.0298619058518348
1526328919223,-0.0023804074158846333,-0.015564202334630295,1.0342565041580833
1526328919239,-0.015564202334630295,-0.00579842832074462,1.0240024414435034
1526328919255,-0.007751583123521755,-0.018493934538795997,1.0210727092393377
1526328919271,-0.012634470130464592,-0.011169604028381741,1.0362096589608605
1526328919288,0.001037613488975353,-0.014587624933241727,1.0191195544365605
1526328919304,-0.012146181429770309,-0.013122758831158876,1.0357213702601662
1526328919320,-0.003356984817273201,-0.006775005722133187,1.0420691233691919
1526328919336,-9.15541313801782E-4,-0.012634470130464592,1.040604257267109
1526328919353,-0.00579842832074462,-0.02288853284504455,1.028397039749752
1526328919369,-0.008239871824216038,-0.008728160524910322,1.0244907301441977
1526328919385,-0.008239871824216038,-0.02386511024643312,1.0381628137636376
1526328919401,-0.010193026626993174,-0.006775005722133187,1.028397039749752
1526328919418,-0.011169604028381741,-0.020935378042267416,1.0259555962462805
1526328919434,-0.01361104753185316,-0.019470511940184565,1.0274204623483634
1526328919450,-9.15541313801782E-4,-0.018005645838101714,1.0210727092393377
1526328919466,5.493247882810692E-4,-0.01995880064087885,1.0342565041580833
1526328919483,-0.005310139620050336,-0.019470511940184565,1.0279087510490577
1526328919499,-0.006775005722133187,-0.011169604028381741,1.021560997940032
1526328919515,-0.004333562218661768,-0.018493934538795997,1.033768215457389
1526328919531,-0.003356984817273201,-0.020447089341573133,1.0332799267566948
1526328919548,-0.008239871824216038,-0.006286717021438903,1.040604257267109
1526328919564,-0.007751583123521755,-0.0214236667429617,1.0308384832532234
1526328919580,-0.0018921187151903496,-0.01995880064087885,1.035233081559472
1526328919596,-0.005310139620050336,-0.014587624933241727,1.0342565041580833
1526328919613,-0.010193026626993174,-0.015564202334630295,1.026932173647669
1526328919629,-0.00579842832074462,-0.015075913633936011,1.0313267719539176
1526328919645,-0.004821850919356052,-0.014587624933241727,1.028397039749752
1526328919663,-0.012146181429770309,-0.01361104753185316,1.0293736171511405
1526328919679,-0.007751583123521755,-0.016540779736018862,1.0366979476615548
1526328919696,-0.00579842832074462,-0.018493934538795997,1.0230258640421148
1526328919712,0.001037613488975353,-0.011169604028381741,1.033768215457389
1526328919728,-0.00970473792629889,-0.014099336232547444,1.0205844205386434
1526328919744,-0.007263294422827471,-0.01751735713740743,1.0288853284504462
1526328919761,-0.005310139620050336,-0.011169604028381741,1.0259555962462805
1526328919777,-0.004333562218661768,-0.0214236667429617,1.0357213702601662
1526328919793,-0.002868696116578917,-0.011657892729076025,1.0186312657358663
1526328919810,-0.00579842832074462,-0.018493934538795997,1.0210727092393377
1526328919826,-0.01361104753185316,-0.01605249103532458,1.026932173647669
1526328919842,-0.012634470130464592,-0.014587624933241727,1.0230258640421148
1526328919858,-0.012634470130464592,-0.008239871824216038,1.0205844205386434
1526328919875,-0.0038452735179674846,-0.007751583123521755,1.035233081559472
1526328919891,-9.15541313801782E-4,-0.023376821545738835,1.0401159685664148
1526328919907,-0.005310139620050336,-0.01605249103532458,1.035233081559472
1526328919923,-0.012146181429770309,-0.02386511024643312,1.0298619058518348
1526328919940,-0.007751583123521755,-0.011169604028381741,1.0171663996337834
1526328919956,-0.014587624933241727,-0.011169604028381741,1.0274204623483634
1526328919972,-0.008239871824216038,-0.020447089341573133,1.0327916380560005
1526328919988,-0.007751583123521755,-0.00970473792629889,1.0313267719539176
1526328920005,-0.004821850919356052,-0.013122758831158876,1.021560997940032
1526328920021,-0.011169604028381741,-0.01751735713740743,1.0381628137636376
1526328920037,-0.0023804074158846333,-0.006286717021438903,1.033768215457389
1526328920053,-0.012634470130464592,-0.013122758831158876,1.0293736171511405
1526328920070,-0.004821850919356052,-0.010681315327687457,1.0254673075455862
1526328920086,-0.007751583123521755,-0.011169604028381741,1.0288853284504462
1526328920102,-0.0023804074158846333,-0.016540779736018862,1.0171663996337834
1526328920118,-0.0014038300144960658,-0.00970473792629889,1.0293736171511405
1526328920135,-0.008728160524910322,-0.013122758831158876,1.0259555962462805
1526328920151,-0.003356984817273201,-0.018005645838101714,1.0391393911650262
1526328920167,-0.004821850919356052,-0.006775005722133187,1.0381628137636376
1526328920183,-0.012146181429770309,-0.020935378042267416,1.026932173647669
1526328920200,-0.009216449225604606,-0.020935378042267416,1.0332799267566948
1526328920216,-0.008239871824216038,-0.014099336232547444,1.0327916380560005
1526328920232,-0.010193026626993174,-0.008728160524910322,1.0254673075455862
1526328920248,-0.005310139620050336,-0.018493934538795997,1.0279087510490577
1526328920265,-0.014587624933241727,-0.010193026626993174,1.0196078431372548
1526328920281,-0.012146181429770309,-0.015075913633936011,1.0298619058518348
1526328920297,-0.01898222323949028,-0.015075913633936011,1.0196078431372548
1526328920315,-0.014587624933241727,-0.01751735713740743,1.0200961318379491
1526328920331,-0.019470511940184565,-0.016540779736018862,1.0200961318379491
1526328920348,-0.00579842832074462,-0.009216449225604606,1.0288853284504462
1526328920364,-0.010681315327687457,-0.010681315327687457,1.0327916380560005
1526328920380,-0.010193026626993174,-0.010681315327687457,1.0240024414435034
1526328920396,-0.00579842832074462,-0.011657892729076025,1.0225375753414205
1526328920413,-0.010193026626993174,-0.011169604028381741,1.0279087510490577
1526328920429,-0.00970473792629889,-0.018005645838101714,1.0308384832532234
1526328920445,-0.002868696116578917,-0.014587624933241727,1.0244907301441977
1526328920461,-0.003356984817273201,-0.014587624933241727,1.0381628137636376
1526328920478,-0.007263294422827471,-0.01751735713740743,1.0366979476615548
1526328920494,-0.007751583123521755,-0.011169604028381741,1.0142366674296177
1526328920510,-0.00579842832074462,-0.01995880064087885,1.028397039749752
1526328920526,-0.007751583123521755,-0.01751735713740743,1.0293736171511405
1526328920543,-0.0038452735179674846,-0.011657892729076025,1.0308384832532234
1526328920559,-0.01361104753185316,-0.018493934538795997,1.035233081559472
1526328920575,-0.009216449225604606,-0.014587624933241727,1.0254673075455862
1526328920591,-0.004821850919356052,-0.016540779736018862,1.0279087510490577
1526328920608,-0.004821850919356052,-0.01898222323949028,1.0327916380560005
1526328920624,-0.00970473792629889,-0.011657892729076025,1.0332799267566948
1526328920640,-0.006775005722133187,-0.022400244144350268,1.0396276798657205
1526328920656,-0.013122758831158876,-0.011657892729076025,1.0293736171511405
1526328920673,5.493247882810692E-4,-0.009216449225604606,1.0391393911650262
1526328920689,-0.0038452735179674846,-0.01995880064087885,1.0357213702601662
1526328920705,-0.012146181429770309,-0.026306553749904538,1.0161898222323948
1526328920721,-0.004333562218661768,-0.018005645838101714,1.035233081559472
1526328920738,-0.008728160524910322,-0.00579842832074462,1.0142366674296177
1526328920754,-0.010193026626993174,-0.012634470130464592,1.021560997940032
1526328920770,-0.010193026626993174,-0.013122758831158876,1.0103303578240634
1526328920787,-0.00579842832074462,-0.01361104753185316,1.0362096589608605
1526328920803,0.0020141908903639205,-0.013122758831158876,1.0288853284504462
1526328920819,-0.003356984817273201,-0.014099336232547444,1.0298619058518348
1526328920835,-0.005310139620050336,-0.022400244144350268,1.0186312657358663
1526328920852,-0.007751583123521755,-0.016540779736018862,1.0240024414435034
1526328920868,-0.003356984817273201,-0.015075913633936011,1.040604257267109
1526328920884,-0.014099336232547444,-0.01605249103532458,1.0205844205386434
1526328920900,-0.003356984817273201,-0.012634470130464592,1.0308384832532234
1526328920917,-0.008728160524910322,-0.0214236667429617,1.0196078431372548
1526328920933,-0.010193026626993174,-0.014587624933241727,1.026932173647669
1526328920949,-0.010193026626993174,-0.01361104753185316,1.0196078431372548
1526328920967,6.103608758678547E-5,-0.010681315327687457,1.024979018844892
1526328920983,-0.010681315327687457,-0.01751735713740743,1.0293736171511405
1526328920999,-0.0018921187151903496,-0.013122758831158876,1.0274204623483634
1526328921016,-0.009216449225604606,-0.006286717021438903,1.0152132448310063
1526328921032,-0.005310139620050336,-0.010193026626993174,1.026932173647669
1526328921048,-0.0023804074158846333,-0.011169604028381741,1.0342565041580833
1526328921064,-0.008728160524910322,-0.008239871824216038,1.0362096589608605
1526328921081,-0.008239871824216038,-0.014099336232547444,1.0366979476615548
1526328921097,-0.004333562218661768,-0.012634470130464592,1.0366979476615548
1526328921113,-0.007751583123521755,-0.00970473792629889,1.0279087510490577
1526328921129,-0.0014038300144960658,-0.014099336232547444,1.0313267719539176
1526328921146,-0.012634470130464592,-0.002868696116578917,1.0313267719539176
1526328921162,6.103608758678547E-5,-0.01361104753185316,1.0293736171511405
1526328921178,-0.007751583123521755,-0.011657892729076025,1.0327916380560005
1526328921195,0.0020141908903639205,-0.010193026626993174,1.033768215457389
1526328921211,-0.005310139620050336,-0.014099336232547444,1.0274204623483634
1526328921227,-0.004333562218661768,-0.02532997634851597,1.031815060654612
1526328921243,-0.015075913633936011,-0.007751583123521755,1.0298619058518348
1526328921260,-0.012634470130464592,-0.011169604028381741,1.0313267719539176
1526328921276,-0.016540779736018862,-0.015075913633936011,1.026932173647669
1526328921292,-0.016540779736018862,-0.01995880064087885,1.026932173647669
1526328921308,-0.015564202334630295,-0.00579842832074462,1.0225375753414205
1526328921325,-0.007751583123521755,-0.020447089341573133,1.0240024414435034
1526328921341,-0.009216449225604606,-0.02288853284504455,1.0254673075455862
1526328921357,-0.008239871824216038,-0.01751735713740743,1.0425574120698862
1526328921373,-0.004821850919356052,-0.015564202334630295,1.028397039749752
1526328921390,-0.004333562218661768,-0.01995880064087885,1.0210727092393377
1526328921406,-9.15541313801782E-4,-0.010681315327687457,1.0230258640421148
1526328921422,-0.004821850919356052,-0.013122758831158876,1.0327916380560005
1526328921439,-0.008239871824216038,-0.01605249103532458,1.0161898222323948
1526328921455,-0.002868696116578917,-0.011657892729076025,1.037186236362249
1526328921471,-0.00579842832074462,-0.018493934538795997,1.044022278171969
1526328921487,-0.012634470130464592,-0.01605249103532458,1.0225375753414205
1526328921504,-0.007751583123521755,-0.007751583123521755,1.0323033493553062
1526328921520,-0.008728160524910322,-0.008728160524910322,1.0279087510490577
1526328921536,-0.010681315327687457,-0.006286717021438903,1.0332799267566948
1526328921552,-0.004821850919356052,-0.011657892729076025,1.0357213702601662
1526328921569,-0.0038452735179674846,-0.011657892729076025,1.031815060654612
1526328921585,-0.0023804074158846333,-0.014587624933241727,1.0171663996337834
1526328921601,-0.011169604028381741,-0.015075913633936011,1.0293736171511405
1526328921619,-0.013122758831158876,-0.015075913633936011,1.0313267719539176
1526328921635,-0.0014038300144960658,-0.011657892729076025,1.0425574120698862
1526328921651,-0.006775005722133187,-0.01995880064087885,1.0244907301441977
1526328921667,-0.004333562218661768,-0.023376821545738835,1.0161898222323948
1526328921684,0.005432211795223907,-0.015564202334630295,1.0376745250629433
1526328921700,-9.15541313801782E-4,-0.01361104753185316,1.0240024414435034
1526328921716,-0.004821850919356052,-0.015564202334630295,1.0259555962462805
1526328921733,-0.010193026626993174,-0.015075913633936011,1.023514152742809
1526328921749,-0.0018921187151903496,-0.005310139620050336,1.0410925459678033
1526328921765,-9.15541313801782E-4,-0.015075913633936011,1.0313267719539176
1526328921781,-0.008728160524910322,-0.018005645838101714,1.0166781109330891
1526328921798,-0.005310139620050336,-0.007751583123521755,1.026932173647669
1526328921814,-0.006775005722133187,-0.020447089341573133,1.026932173647669
1526328921830,-0.0018921187151903496,-0.01751735713740743,1.024979018844892
1526328921846,-0.008728160524910322,-0.018005645838101714,1.0332799267566948
1526328921863,-0.013122758831158876,-0.01995880064087885,1.0308384832532234
1526328921879,-0.0018921187151903496,-0.015564202334630295,1.0240024414435034
1526328921895,-0.008239871824216038,-0.013122758831158876,1.0142366674296177
1526328921912,-0.015564202334630295,-0.010681315327687457,1.0274204623483634
1526328921928,-0.005310139620050336,-0.02386511024643312,1.035233081559472
1526328921944,-0.005310139620050336,-0.011657892729076025,1.031815060654612
1526328921960,-9.15541313801782E-4,-0.01605249103532458,1.0342565041580833
1526328921977,-0.009216449225604606,-0.02288853284504455,1.028397039749752
1526328921993,-0.007751583123521755,-0.018005645838101714,1.0308384832532234
1526328922009,-0.004333562218661768,-0.011169604028381741,1.0279087510490577
1526328922025,-0.007751583123521755,-0.011169604028381741,1.0332799267566948
1526328922042,-0.008239871824216038,-0.013122758831158876,1.026932173647669
1526328922058,-0.007751583123521755,-0.01995880064087885,1.0244907301441977
1526328922074,-0.007751583123521755,-0.015075913633936011,1.0298619058518348
1526328922091,-0.005310139620050336,-0.012634470130464592,1.0366979476615548
1526328922107,-0.010193026626993174,-0.016540779736018862,1.0410925459678033
1526328922123,-0.01361104753185316,-0.015564202334630295,1.0293736171511405
1526328922139,-0.014099336232547444,-0.014099336232547444,1.0152132448310063
1526328922156,-0.00579842832074462,-0.018005645838101714,1.037186236362249
1526328922172,-0.013122758831158876,-0.007751583123521755,1.0342565041580833
1526328922188,-0.007263294422827471,-0.015564202334630295,1.0293736171511405
1526328922204,-0.011169604028381741,-0.015564202334630295,1.024979018844892
1526328922221,-0.010681315327687457,-0.012634470130464592,1.0362096589608605
1526328922237,0.001037613488975353,-0.013122758831158876,1.0327916380560005
1526328922253,-0.007751583123521755,-0.00970473792629889,1.0288853284504462
1526328922271,-0.00579842832074462,-0.010681315327687457,1.033768215457389
1526328922287,-0.010681315327687457,-0.009216449225604606,1.0362096589608605
1526328922303,-0.010193026626993174,-0.012634470130464592,1.0323033493553062
1526328922319,-0.007263294422827471,-0.014099336232547444,1.0274204623483634
1526328922336,-0.0023804074158846333,-0.016540779736018862,1.044022278171969
1526328922352,-0.0023804074158846333,-0.023376821545738835,1.0357213702601662
1526328922368,-0.011169604028381741,-0.013122758831158876,1.035233081559472
1526328922385,-0.007263294422827471,-0.009216449225604606,1.0259555962462805
1526328922401,-0.011169604028381741,-0.015075913633936011,1.035233081559472
1526328922417,-0.006775005722133187,-0.01995880064087885,1.035233081559472
1526328922433,-0.003356984817273201,-0.022400244144350268,1.023514152742809
1526328922450,-0.015564202334630295,-0.008239871824216038,1.0391393911650262
1526328922466,-0.012634470130464592,-0.01605249103532458,1.031815060654612
1526328922482,-0.008239871824216038,-0.01995880064087885,1.0298619058518348
1526328922498,-0.008239871824216038,-0.015564202334630295,1.035233081559472
1526328922515,-0.010681315327687457,-0.018493934538795997,1.0425574120698862
1526328922531,-0.008728160524910322,-0.024841687647821686,1.0298619058518348
1526328922547,-0.0023804074158846333,-0.014587624933241727,1.0152132448310063
1526328922564,-0.010193026626993174,-0.020447089341573133,1.0196078431372548
1526328922580,-0.010193026626993174,-0.014587624933241727,1.0298619058518348
1526328922596,-0.00579842832074462,-0.01361104753185316,1.0274204623483634
1526328922612,-0.004821850919356052,-0.014099336232547444,1.0401159685664148
1526328922629,-0.012146181429770309,-0.016540779736018862,1.0176546883344777
1526328922645,-0.008239871824216038,-0.014587624933241727,1.035233081559472
1526328922661,-0.010193026626993174,-0.016540779736018862,1.0225375753414205
1526328922677,-0.010681315327687457,-0.014587624933241727,1.0415808346684976
1526328922694,-0.008728160524910322,-0.01605249103532458,1.0210727092393377
1526328922710,-0.00579842832074462,-0.010193026626993174,1.044022278171969
1526328922726,-0.008239871824216038,-0.015564202334630295,1.023514152742809
1526328922743,-0.00579842832074462,-0.007751583123521755,1.0157015335317006
1526328922759,-0.002868696116578917,-0.015564202334630295,1.0230258640421148
1526328922775,-0.0023804074158846333,-0.014587624933241727,1.0298619058518348
1526328922791,-0.00579842832074462,-0.014587624933241727,1.028397039749752
1526328922808,-0.010193026626993174,-0.023376821545738835,1.0230258640421148
1526328922824,-0.007751583123521755,-0.008239871824216038,1.0240024414435034
1526328922840,-0.011169604028381741,-0.018005645838101714,1.0323033493553062
1526328922857,-0.007263294422827471,-0.01605249103532458,1.0254673075455862
1526328922873,-0.00579842832074462,-0.014587624933241727,1.037186236362249
1526328922889,-0.005310139620050336,-0.004821850919356052,1.0161898222323948
1526328922905,-0.014099336232547444,-0.019470511940184565,1.0445105668726633
1526328922923,-0.008239871824216038,-0.011657892729076025,1.0196078431372548
1526328922939,-0.0014038300144960658,-0.014587624933241727,1.021560997940032
1526328922955,-0.004821850919356052,-0.01995880064087885,1.0293736171511405
1526328922971,-0.014099336232547444,-0.01751735713740743,1.0157015335317006
1526328922988,-0.007263294422827471,-0.011657892729076025,1.0142366674296177
1526328923004,-0.009216449225604606,-0.010193026626993174,1.023514152742809
1526328923020,0.00836194399938961,-0.010681315327687457,1.0298619058518348
1526328923037,-0.010193026626993174,-0.00579842832074462,1.0332799267566948
1526328923053,-0.01605249103532458,-0.014099336232547444,1.0298619058518348
1526328923069,-0.003356984817273201,-0.01751735713740743,1.033768215457389
1526328923085,-0.01361104753185316,-0.009216449225604606,1.0288853284504462
1526328923102,-0.011169604028381741,-0.018493934538795997,1.0205844205386434
1526328923118,-0.008239871824216038,-0.019470511940184565,1.0049591821164263
1526328923134,-0.007751583123521755,-0.00970473792629889,1.0396276798657205
1526328923150,-0.003356984817273201,-0.015075913633936011,1.0240024414435034
1526328923167,-0.011169604028381741,-0.020447089341573133,1.0205844205386434
1526328923183,-0.007263294422827471,-0.0214236667429617,1.0210727092393377
1526328923199,-0.004333562218661768,-0.01898222323949028,1.0196078431372548
1526328923216,-0.012146181429770309,-0.015564202334630295,1.0176546883344777
1526328923232,-0.008239871824216038,-0.018493934538795997,1.0308384832532234
1526328923248,0.002990768291752488,-0.018005645838101714,1.0191195544365605
1526328923264,-0.014587624933241727,-0.015075913633936011,1.024979018844892
1526328923281,-0.0018921187151903496,-0.02386511024643312,1.0308384832532234
1526328923297,-0.015564202334630295,-0.018005645838101714,1.0308384832532234
1526328923313,-0.00579842832074462,-0.015564202334630295,1.0191195544365605
1526328923330,-0.008239871824216038,-0.014587624933241727,1.0313267719539176
1526328923346,-0.004333562218661768,-0.013122758831158876,1.0093537804226749
1526328923362,-0.005310139620050336,-0.015075913633936011,1.037186236362249
1526328923378,-0.008239871824216038,-0.018005645838101714,1.0362096589608605
1526328923395,-0.005310139620050336,-0.011657892729076025,1.014724956130312
1526328923411,-0.012634470130464592,-0.012634470130464592,1.0205844205386434
1526328923427,-0.004821850919356052,-0.010681315327687457,1.0332799267566948
1526328923444,-0.014587624933241727,-0.013122758831158876,1.0293736171511405
1526328923460,-0.014099336232547444,-0.013122758831158876,1.0332799267566948
1526328923476,-0.006775005722133187,-0.006286717021438903,1.0240024414435034
1526328923492,-0.009216449225604606,-0.02288853284504455,1.0230258640421148
1526328923509,-0.012146181429770309,-0.013122758831158876,1.0293736171511405
1526328923525,0.001037613488975353,-0.014099336232547444,1.0230258640421148
1526328923541,-0.012146181429770309,-0.018005645838101714,1.0240024414435034
1526328923557,-0.010193026626993174,-0.01361104753185316,1.0396276798657205
1526328923575,-0.008239871824216038,-0.019470511940184565,1.021560997940032
1526328923591,-0.007751583123521755,-0.02288853284504455,1.0342565041580833
1526328923607,-0.006775005722133187,-0.01898222323949028,1.0293736171511405
1526328923623,-0.008728160524910322,-0.015075913633936011,1.0161898222323948
1526328923640,-0.00970473792629889,-0.015075913633936011,1.033768215457389
1526328923656,-0.006775005722133187,-0.019470511940184565,1.0279087510490577
1526328923672,6.103608758678547E-5,-0.023376821545738835,1.0362096589608605
1526328923689,-0.012146181429770309,-0.01605249103532458,1.0279087510490577
1526328923705,0.0039673456931410556,-0.016540779736018862,1.0088654917219806
1526328923721,-0.013122758831158876,-0.014587624933241727,1.0313267719539176
1526328923737,-0.00579842832074462,-0.0214236667429617,1.0259555962462805
1526328923754,-0.008728160524910322,-0.015075913633936011,1.0254673075455862
1526328923770,-0.007751583123521755,-0.011657892729076025,1.0313267719539176
1526328923786,-0.007263294422827471,-0.0214236667429617,1.031815060654612
1526328923803,-0.003356984817273201,-0.014099336232547444,1.0425574120698862
1526328923819,-0.011169604028381741,-0.012634470130464592,1.0342565041580833
1526328923835,-0.0018921187151903496,-0.009216449225604606,1.0259555962462805
1526328923851,-0.006775005722133187,-0.01605249103532458,1.035233081559472
1526328923868,-0.00579842832074462,-0.009216449225604606,1.037186236362249
1526328923884,-0.00970473792629889,-0.012634470130464592,1.0122835126268406
1526328923900,-0.006775005722133187,-0.00970473792629889,1.023514152742809
1526328923916,-0.01995880064087885,-0.024841687647821686,1.0376745250629433
1526328923933,0.004455634393835339,-0.018005645838101714,1.024979018844892
1526328923949,0.0015259021896696368,-0.006286717021438903,1.0323033493553062
1526328923965,-0.007751583123521755,-0.01361104753185316,1.0327916380560005
1526328923982,-0.004821850919356052,-0.01361104753185316,1.0342565041580833
1526328923998,-0.011169604028381741,-0.02288853284504455,1.0391393911650262
1526328924014,-0.00579842832074462,-0.01898222323949028,1.0298619058518348
1526328924030,-0.007263294422827471,-0.00970473792629889,1.0210727092393377
1526328924047,-0.010193026626993174,-0.010193026626993174,1.024979018844892
1526328924063,-0.009216449225604606,-0.02288853284504455,1.0459754329747462
1526328924079,-0.00579842832074462,-0.019470511940184565,1.0357213702601662
1526328924096,5.493247882810692E-4,-0.016540779736018862,1.0186312657358663
1526328924112,-0.006775005722133187,-0.011657892729076025,1.026932173647669
1526328924128,-0.008728160524910322,-0.010193026626993174,1.0152132448310063
1526328924144,-0.009216449225604606,-0.00970473792629889,1.0240024414435034
1526328924161,-0.003356984817273201,-0.010681315327687457,1.035233081559472
1526328924177,-0.007751583123521755,-0.01898222323949028,1.026932173647669
1526328924193,-0.00579842832074462,-0.01605249103532458,1.0186312657358663
1526328924210,-0.00579842832074462,-0.01361104753185316,1.0293736171511405
1526328924227,-0.005310139620050336,-0.013122758831158876,1.0157015335317006
1526328924243,-0.014099336232547444,-0.011657892729076025,1.0401159685664148
1526328924259,-0.008239871824216038,-0.01605249103532458,1.0171663996337834
1526328924275,-0.007263294422827471,-0.01605249103532458,1.0240024414435034
1526328924292,-0.008239871824216038,-0.011169604028381741,1.0240024414435034
1526328924308,-0.007263294422827471,-0.014587624933241727,1.0240024414435034
1526328924324,-0.00579842832074462,-0.01898222323949028,1.0254673075455862
1526328924341,-0.002868696116578917,-0.01605249103532458,1.0313267719539176
1526328924357,-0.01361104753185316,-0.014587624933241727,1.0259555962462805
1526328924373,-0.008239871824216038,-0.025818265049210254,1.0171663996337834
1526328924389,-0.012634470130464592,-0.012634470130464592,1.0127718013275349
1526328924406,-0.003356984817273201,-0.010681315327687457,1.0391393911650262
1526328924422,-0.004821850919356052,-0.019470511940184565,1.0176546883344777
1526328924438,-0.002868696116578917,-0.014099336232547444,1.0210727092393377
1526328924455,-0.008728160524910322,-0.020935378042267416,1.0230258640421148
1526328924471,6.103608758678547E-5,-0.019470511940184565,1.031815060654612
1526328924487,-0.004821850919356052,-0.016540779736018862,1.024979018844892
1526328924503,6.103608758678547E-5,-0.01605249103532458,1.0313267719539176
1526328924520,-0.0038452735179674846,-0.016540779736018862,1.044022278171969
1526328924536,-0.008728160524910322,-0.01995880064087885,1.0342565041580833
1526328924552,-0.006775005722133187,-0.014587624933241727,1.026932173647669
1526328924569,-0.0014038300144960658,-0.010681315327687457,1.028397039749752
1526328924585,6.103608758678547E-5,-0.01605249103532458,1.023514152742809
1526328924601,-0.009216449225604606,-0.016540779736018862,1.031815060654612
1526328924617,-0.010193026626993174,-0.015564202334630295,1.0342565041580833
1526328924634,-9.15541313801782E-4,-0.011169604028381741,1.021560997940032
1526328924650,-0.012634470130464592,0.0015259021896696368,1.0332799267566948
1526328924666,-0.008239871824216038,-0.01605249103532458,1.0176546883344777
1526328924683,-0.00579842832074462,-0.008239871824216038,1.0362096589608605
1526328924699,-0.00579842832074462,-0.008239871824216038,1.0435339894712747
1526328924715,-9.15541313801782E-4,-0.008728160524910322,1.0410925459678033
1526328924731,-0.00579842832074462,-0.01995880064087885,1.0327916380560005
1526328924748,0.0039673456931410556,-0.00970473792629889,1.0244907301441977
1526328924764,-0.01361104753185316,-0.020447089341573133,1.0366979476615548
1526328924780,-0.012146181429770309,-0.018493934538795997,1.040604257267109
1526328924797,-0.003356984817273201,-0.01751735713740743,1.0230258640421148
1526328924813,-0.011169604028381741,-0.018005645838101714,1.033768215457389
1526328924829,-0.005310139620050336,-0.020447089341573133,1.0279087510490577
1526328924845,-0.011169604028381741,-0.00970473792629889,1.0240024414435034
1526328924862,-0.0023804074158846333,-0.015075913633936011,1.0327916380560005
1526328924879,-0.01361104753185316,-0.01898222323949028,1.0323033493553062
1526328924895,-9.15541313801782E-4,-4.272526131074983E-4,1.0191195544365605
1526328924911,-0.007263294422827471,-0.018005645838101714,1.026932173647669
1526328924927,-0.005310139620050336,-0.01751735713740743,1.0244907301441977
1526328924944,-0.003356984817273201,-0.010193026626993174,1.0298619058518348
1526328924960,-0.00970473792629889,-0.018493934538795997,1.0308384832532234
1526328924976,-0.0014038300144960658,-0.016540779736018862,1.0323033493553062
1526328924993,5.493247882810692E-4,-0.01361104753185316,1.0200961318379491
1526328925009,-9.15541313801782E-4,-0.010681315327687457,1.037186236362249
1526328925025,-0.002868696116578917,-0.015075913633936011,1.0313267719539176
1526328925041,-0.008728160524910322,-0.01898222323949028,1.037186236362249
1526328925058,-0.00579842832074462,-0.01751735713740743,1.044022278171969
1526328925074,-0.006775005722133187,-0.01361104753185316,1.0313267719539176
1526328925090,-0.010681315327687457,-0.014587624933241727,1.0313267719539176
1526328925107,-0.01361104753185316,-0.014099336232547444,1.0435339894712747
1526328925123,-0.016540779736018862,-0.015564202334630295,1.0376745250629433
1526328925139,-0.0038452735179674846,-0.016540779736018862,1.0142366674296177
1526328925155,-0.0023804074158846333,-0.022400244144350268,1.0186312657358663
1526328925172,-0.007263294422827471,-0.00970473792629889,1.0171663996337834
1526328925188,-0.013122758831158876,-0.01898222323949028,1.0196078431372548
1526328925204,-0.0014038300144960658,-0.01361104753185316,1.0210727092393377
1526328925221,-0.004333562218661768,-0.01605249103532458,1.0225375753414205
1526328925237,-0.010193026626993174,-0.023376821545738835,1.024979018844892
1526328925253,-0.012146181429770309,-0.008728160524910322,1.0240024414435034
1526328925270,-0.005310139620050336,-0.013122758831158876,1.0230258640421148
1526328925286,-0.009216449225604606,-0.016540779736018862,1.0327916380560005
1526328925302,-0.006775005722133187,-0.01361104753185316,1.0298619058518348
1526328925318,-0.008239871824216038,-0.02288853284504455,1.0293736171511405
1526328925335,-0.008728160524910322,-0.011657892729076025,1.0210727092393377
1526328925351,-0.007263294422827471,-0.010681315327687457,1.0308384832532234
1526328925367,-0.003356984817273201,-0.014587624933241727,1.0254673075455862
1526328925384,-0.004333562218661768,-0.019470511940184565,1.0391393911650262
1526328925400,-0.003356984817273201,-0.00970473792629889,1.0288853284504462
1526328925416,-0.004821850919356052,-0.01605249103532458,1.0332799267566948
1526328925432,-0.007751583123521755,-0.016540779736018862,1.024979018844892
1526328925449,-0.007263294422827471,-0.015564202334630295,1.0244907301441977
1526328925465,-0.00579842832074462,-0.019470511940184565,1.026932173647669
1526328925481,-0.006775005722133187,-0.015564202334630295,1.0293736171511405
1526328925498,-0.007263294422827471,-0.011657892729076025,1.0274204623483634
1526328925514,5.493247882810692E-4,-0.010681315327687457,1.0279087510490577
1526328925531,-0.00970473792629889,-0.020935378042267416,1.0279087510490577
1526328925547,-0.002868696116578917,-0.024841687647821686,1.0254673075455862
1526328925563,-0.008239871824216038,-0.010193026626993174,1.0308384832532234
1526328925580,-0.004821850919356052,-0.015564202334630295,1.0166781109330891
1526328925596,-0.014587624933241727,-0.015075913633936011,1.0279087510490577
1526328925612,-0.005310139620050336,-0.011657892729076025,1.0323033493553062
1526328925628,-0.012634470130464592,-0.018493934538795997,1.0240024414435034
1526328925645,-0.015075913633936011,-0.016540779736018862,1.0225375753414205
1526328925661,-0.007751583123521755,-0.010681315327687457,1.0298619058518348
1526328925677,-0.0023804074158846333,-0.01898222323949028,1.0254673075455862
1526328925694,-0.004333562218661768,-0.002868696116578917,1.024979018844892
1526328925710,-0.00970473792629889,-0.01751735713740743,1.0298619058518348
1526328925726,0.0015259021896696368,-0.014587624933241727,1.0459754329747462
1526328925742,-0.00970473792629889,-0.010193026626993174,1.037186236362249
1526328925759,-0.0023804074158846333,-0.011169604028381741,1.023514152742809
1526328925775,-0.008728160524910322,-0.015564202334630295,1.0230258640421148
1526328925791,-0.0023804074158846333,-0.018493934538795997,1.0117952239261463
1526328925808,-0.00579842832074462,-0.014099336232547444,1.0425574120698862
1526328925824,-0.012634470130464592,-0.011169604028381741,1.035233081559472
1526328925840,-0.007263294422827471,-0.01898222323949028,1.035233081559472
1526328925856,-9.15541313801782E-4,-0.014587624933241727,1.040604257267109
1526328925873,-0.0038452735179674846,-0.015564202334630295,1.0171663996337834
1526328925889,5.493247882810692E-4,-0.00579842832074462,1.0288853284504462
1526328925905,-0.004333562218661768,-0.0038452735179674846,1.021560997940032
1526328925922,-0.007751583123521755,-0.006775005722133187,1.0176546883344777
1526328925938,-0.012146181429770309,-0.01751735713740743,1.0308384832532234
1526328925954,-0.0038452735179674846,-0.008728160524910322,1.0323033493553062
1526328925971,-0.00970473792629889,-0.018493934538795997,1.0176546883344777
1526328925987,-0.01361104753185316,-0.02777141985198739,1.0313267719539176
1526328926003,-0.007751583123521755,-0.015564202334630295,1.0161898222323948
1526328926019,-0.00579842832074462,-0.019470511940184565,1.0210727092393377
1526328926036,6.103608758678547E-5,-0.006775005722133187,1.0298619058518348
1526328926052,-0.0014038300144960658,-0.016540779736018862,1.0254673075455862
1526328926068,-0.004333562218661768,-0.015564202334630295,1.028397039749752
1526328926085,-0.010193026626993174,-0.010193026626993174,1.035233081559472
1526328926101,-0.003356984817273201,-0.020447089341573133,1.037186236362249
1526328926117,-0.008239871824216038,-0.022400244144350268,1.0225375753414205
1526328926133,-0.0018921187151903496,-0.006286717021438903,1.0259555962462805
1526328926150,-0.011169604028381741,-0.0214236667429617,1.0298619058518348
1526328926166,-0.008728160524910322,-0.018493934538795997,1.0200961318379491
1526328926183,-0.004821850919356052,-0.015075913633936011,1.040604257267109
1526328926199,-0.007751583123521755,-0.01605249103532458,1.0191195544365605
1526328926215,-0.008728160524910322,-0.012634470130464592,1.021560997940032
1526328926232,-0.004333562218661768,-0.010681315327687457,1.0342565041580833
1526328926248,-0.00970473792629889,-0.011169604028381741,1.0152132448310063
1526328926264,-0.005310139620050336,-0.011657892729076025,1.0298619058518348
1526328926280,-0.006775005722133187,-0.00970473792629889,1.0108186465247577
1526328926297,0.0015259021896696368,-0.015564202334630295,1.035233081559472
1526328926313,-0.008239871824216038,-0.02288853284504455,1.044022278171969
1526328926329,-0.006775005722133187,-0.011169604028381741,1.0396276798657205
1526328926346,-0.00970473792629889,-0.013122758831158876,1.0186312657358663
1526328926362,-0.010193026626993174,-0.018005645838101714,1.0244907301441977
1526328926378,-0.015564202334630295,-0.01605249103532458,1.023514152742809
1526328926395,-0.002868696116578917,-0.015075913633936011,1.0244907301441977
1526328926411,-0.00970473792629889,-0.008239871824216038,1.0230258640421148
1526328926427,-0.01361104753185316,-0.010681315327687457,1.0225375753414205
1526328926443,-0.005310139620050336,-0.014099336232547444,1.0357213702601662
1526328926460,-0.013122758831158876,-0.011657892729076025,1.023514152742809
1526328926476,-0.00579842832074462,-0.016540779736018862,1.033768215457389
1526328926492,-0.004821850919356052,-0.008728160524910322,1.0244907301441977
1526328926509,-0.014587624933241727,-0.01898222323949028,1.0298619058518348
1526328926525,-0.007751583123521755,-0.015075913633936011,1.0196078431372548
1526328926541,-0.0023804074158846333,-0.015075913633936011,1.0298619058518348
1526328926557,-0.00579842832074462,-0.023376821545738835,1.0244907301441977
1526328926574,-0.00579842832074462,-0.012634470130464592,1.0259555962462805
1526328926590,-0.007751583123521755,-0.027283131151293105,1.0366979476615548
1526328926606,-0.0018921187151903496,-0.01995880064087885,1.0288853284504462
1526328926623,0.0015259021896696368,-0.015564202334630295,1.031815060654612
1526328926639,-0.008239871824216038,-0.009216449225604606,1.0357213702601662
1526328926655,-0.0038452735179674846,-0.015075913633936011,1.0205844205386434
1526328926672,-0.00579842832074462,-0.010193026626993174,1.0191195544365605
1526328926688,-0.008239871824216038,-0.015564202334630295,1.024979018844892
1526328926704,-0.008239871824216038,-0.018005645838101714,1.0254673075455862
1526328926720,-0.006775005722133187,-0.013122758831158876,1.028397039749752
1526328926737,-0.003356984817273201,-0.018493934538795997,1.0157015335317006
1526328926753,6.103608758678547E-5,-0.014099336232547444,1.031815060654612
1526328926769,-0.008239871824216038,-0.01605249103532458,1.0376745250629433
1526328926786,0.0020141908903639205,-0.005310139620050336,1.023514152742809
1526328926802,-0.008239871824216038,-0.014099336232547444,1.0342565041580833
1526328926818,-0.007263294422827471,-0.01751735713740743,1.0259555962462805
1526328926835,-0.00579842832074462,-0.014099336232547444,1.0244907301441977
1526328926851,-0.009216449225604606,-0.018493934538795997,1.031815060654612
1526328926867,-0.0038452735179674846,-0.013122758831158876,1.026932173647669
1526328926884,-0.012634470130464592,-0.018005645838101714,1.0274204623483634
1526328926900,-0.004333562218661768,-0.020935378042267416,1.0313267719539176
1526328926916,-0.004333562218661768,-0.013122758831158876,1.0274204623483634
1526328926933,-0.004821850919356052,-0.02532997634851597,1.0308384832532234
1526328926949,-0.007751583123521755,-0.01995880064087885,1.0342565041580833
1526328926965,-0.008239871824216038,-0.02288853284504455,1.037186236362249
1526328926981,0.001037613488975353,-0.01605249103532458,1.026932173647669
1526328926998,-0.010681315327687457,-0.01605249103532458,1.026932173647669
1526328927014,-0.016540779736018862,-0.015075913633936011,1.0401159685664148
1526328927030,-0.0023804074158846333,-0.024353398947127403,1.0401159685664148
1526328927047,-0.009216449225604606,-0.010193026626993174,1.0191195544365605
1526328927063,-0.013122758831158876,-0.016540779736018862,1.021560997940032
1526328927079,-0.006775005722133187,-0.01751735713740743,1.0186312657358663
1526328927096,-0.0018921187151903496,-0.024353398947127403,1.0503700312809947
1526328927112,-0.004333562218661768,-0.01605249103532458,1.0157015335317006
1526328927128,-0.0023804074158846333,-0.018005645838101714,1.0308384832532234
1526328927144,-0.018005645838101714,-0.011169604028381741,1.0293736171511405
1526328927161,-0.003356984817273201,-0.015564202334630295,1.0459754329747462
1526328927177,-0.005310139620050336,-0.006775005722133187,1.0279087510490577
1526328927193,-0.010681315327687457,-0.010193026626993174,1.0279087510490577
1526328927210,5.493247882810692E-4,-0.010681315327687457,1.024979018844892
1526328927226,-0.015075913633936011,-0.023376821545738835,1.037186236362249
1526328927242,-0.0023804074158846333,-0.014587624933241727,1.026932173647669
1526328927258,5.493247882810692E-4,-0.0214236667429617,1.0205844205386434
1526328927275,-0.010193026626993174,-0.012634470130464592,1.0362096589608605
1526328927291,0.0015259021896696368,-0.015564202334630295,1.0279087510490577
1526328927307,-0.00579842832074462,-0.012634470130464592,1.0415808346684976
1526328927324,0.001037613488975353,-0.023376821545738835,1.0342565041580833
1526328927340,-0.0038452735179674846,-0.01361104753185316,1.0274204623483634
1526328927356,-0.00970473792629889,-0.01605249103532458,1.0332799267566948
1526328927372,-0.013122758831158876,-0.009216449225604606,1.024979018844892
1526328927389,-0.015075913633936011,-0.010193026626993174,1.0171663996337834
1526328927405,-0.01898222323949028,-0.00970473792629889,1.0357213702601662
1526328927421,-0.009216449225604606,-0.014587624933241727,1.0308384832532234
1526328927438,-0.0018921187151903496,-0.006775005722133187,1.0308384832532234
1526328927454,-0.002868696116578917,-0.018493934538795997,1.0230258640421148
1526328927470,-9.15541313801782E-4,-0.011657892729076025,1.0166781109330891
1526328927487,-0.0038452735179674846,-0.01751735713740743,1.0186312657358663
1526328927503,-0.008728160524910322,-0.01605249103532458,1.0327916380560005
1526328927520,-0.006775005722133187,-0.016540779736018862,1.026932173647669
1526328927536,-0.008728160524910322,-0.00970473792629889,1.026932173647669
1526328927552,-0.008239871824216038,-0.010193026626993174,1.023514152742809
1526328927568,-0.008239871824216038,-0.012634470130464592,1.0049591821164263
1526328927585,-0.014587624933241727,-0.015075913633936011,1.0157015335317006
1526328927601,-0.003356984817273201,-0.013122758831158876,1.0293736171511405
1526328927617,-0.004821850919356052,-0.011657892729076025,1.0308384832532234
1526328927634,-0.009216449225604606,-0.015564202334630295,1.0401159685664148
1526328927650,-0.004821850919356052,-0.012634470130464592,1.0435339894712747
1526328927666,-0.006775005722133187,-0.016540779736018862,1.0288853284504462
1526328927682,-0.014099336232547444,-0.016540779736018862,1.0254673075455862
1526328927699,-0.007263294422827471,-0.014099336232547444,1.031815060654612
1526328927715,0.0025024795910582043,-0.022400244144350268,1.0327916380560005
1526328927731,-0.00970473792629889,-0.019470511940184565,1.0308384832532234
1526328927748,-0.005310139620050336,-0.016540779736018862,1.0152132448310063
1526328927764,-0.010681315327687457,-0.015075913633936011,1.0391393911650262
1526328927780,0.001037613488975353,-0.011169604028381741,1.0449988555733576
1526328927797,-0.012634470130464592,-0.011169604028381741,1.0274204623483634
1526328927813,-0.012634470130464592,-0.01605249103532458,1.028397039749752
1526328927829,-0.014587624933241727,-0.00970473792629889,1.0313267719539176
1526328927845,-0.008728160524910322,-0.010681315327687457,1.0469520103761347
1526328927862,-0.00970473792629889,-0.01995880064087885,1.031815060654612
1526328927878,-0.009216449225604606,-0.015075913633936011,1.0186312657358663
1526328927894,-0.014099336232547444,-0.008239871824216038,1.023514152742809
1526328927911,-0.002868696116578917,-0.01605249103532458,1.0200961318379491
1526328927927,-0.005310139620050336,-0.008728160524910322,1.0313267719539176
1526328927943,-0.0018921187151903496,-0.010681315327687457,1.0332799267566948
1526328927959,-0.011169604028381741,-0.00970473792629889,1.0254673075455862
1526328927976,-0.008728160524910322,-0.012634470130464592,1.014724956130312
1526328927992,-0.0023804074158846333,-0.01605249103532458,1.0161898222323948
1526328928008,-0.00579842832074462,-0.020447089341573133,1.0396276798657205
1526328928025,-0.008728160524910322,-0.014587624933241727,1.0274204623483634
1526328928041,-0.010193026626993174,-0.015075913633936011,1.0259555962462805
1526328928057,0.003479056992446772,-0.018493934538795997,1.0225375753414205
1526328928074,-0.003356984817273201,-0.014099336232547444,1.0410925459678033
1526328928090,-0.005310139620050336,-0.007751583123521755,1.0298619058518348
1526328928106,-0.007263294422827471,-0.01361104753185316,1.024979018844892
1526328928122,-0.011169604028381741,-0.015075913633936011,1.026932173647669
1526328928139,-0.00579842832074462,-0.014099336232547444,1.0240024414435034
1526328928155,-0.004821850919356052,-0.015564202334630295,1.0244907301441977
1526328928172,-0.011169604028381741,-0.008728160524910322,1.0254673075455862
1526328928188,-0.015075913633936011,-0.01605249103532458,1.0323033493553062
1526328928204,-0.003356984817273201,-0.016540779736018862,1.033768215457389
1526328928221,-0.014587624933241727,-0.018493934538795997,1.0362096589608605
1526328928237,-0.003356984817273201,-0.01605249103532458,1.0279087510490577
1526328928253,-0.00579842832074462,-0.01995880064087885,1.0240024414435034
1526328928269,-0.011169604028381741,-0.024841687647821686,1.0313267719539176
1526328928286,-0.005310139620050336,-0.020447089341573133,1.0161898222323948
1526328928302,-0.010193026626993174,-0.019470511940184565,1.0327916380560005
1526328928318,-0.00970473792629889,-0.008728160524910322,1.0186312657358663
1526328928335,6.103608758678547E-5,-0.020447089341573133,1.026932173647669
1526328928351,-0.003356984817273201,-0.012634470130464592,1.0293736171511405
1526328928367,-0.008728160524910322,-0.014587624933241727,1.033768215457389
1526328928383,-0.020935378042267416,-0.01361104753185316,1.0205844205386434
1526328928400,0.001037613488975353,-0.012634470130464592,1.0415808346684976
1526328928416,-0.003356984817273201,-0.010193026626993174,1.0327916380560005
1526328928432,-0.008728160524910322,-0.015564202334630295,1.0391393911650262
1526328928449,-0.007751583123521755,-0.019470511940184565,1.014724956130312
1526328928465,-0.006775005722133187,-0.012634470130464592,1.024979018844892
1526328928481,-0.0023804074158846333,-0.018493934538795997,1.0298619058518348
1526328928498,-0.005310139620050336,-0.011657892729076025,1.0357213702601662
1526328928514,-0.0023804074158846333,-0.00579842832074462,1.0293736171511405
1526328928530,-0.007263294422827471,-0.013122758831158876,1.0210727092393377
1526328928546,-0.008728160524910322,-0.01605249103532458,1.0132600900282291
1526328928563,-0.008239871824216038,-0.018005645838101714,1.040604257267109
1526328928579,-0.009216449225604606,-0.009216449225604606,1.0391393911650262
1526328928595,-0.0023804074158846333,-0.015075913633936011,1.0420691233691919
1526328928612,-0.007751583123521755,-0.019470511940184565,1.0293736171511405
1526328928628,-0.014099336232547444,-0.011169604028381741,1.0342565041580833
1526328928644,-0.006775005722133187,-0.030212863355458808,1.0342565041580833
1526328928661,-0.00579842832074462,-0.00970473792629889,1.0293736171511405
1526328928677,-0.003356984817273201,-0.015564202334630295,1.021560997940032
1526328928693,-0.018493934538795997,-0.010681315327687457,1.0366979476615548
1526328928709,-0.008239871824216038,-0.01751735713740743,1.0298619058518348
1526328928726,-0.010681315327687457,-0.014099336232547444,1.0332799267566948
1526328928742,-0.0038452735179674846,-0.02288853284504455,1.0210727092393377
1526328928758,-0.003356984817273201,-0.015564202334630295,1.0396276798657205
1526328928775,-0.005310139620050336,-0.006775005722133187,1.0298619058518348
1526328928791,-9.15541313801782E-4,-0.01605249103532458,1.026932173647669
1526328928808,-0.005310139620050336,-0.01995880064087885,1.0420691233691919
1526328928824,-0.008239871824216038,-0.014099336232547444,1.0396276798657205
1526328928840,-0.007263294422827471,-0.00579842832074462,1.040604257267109
1526328928856,-0.011169604028381741,-0.016540779736018862,1.026932173647669
1526328928873,-0.00579842832074462,-0.015564202334630295,1.0200961318379491
1526328928889,-0.008728160524910322,-0.008239871824216038,1.0108186465247577
1526328928905,-0.00579842832074462,-0.014587624933241727,1.0205844205386434
1526328928922,-0.007751583123521755,-0.018005645838101714,1.033768215457389
1526328928938,-0.005310139620050336,-0.008239871824216038,1.0171663996337834
1526328928954,-0.007263294422827471,-0.016540779736018862,1.0357213702601662
1526328928970,-0.004821850919356052,-0.010681315327687457,1.0240024414435034
1526328928987,-0.01751735713740743,-0.016540779736018862,1.037186236362249
1526328929003,-0.012146181429770309,-0.016540779736018862,1.035233081559472
1526328929019,-0.010681315327687457,-0.008728160524910322,1.0259555962462805
1526328929036,-0.011169604028381741,-0.024841687647821686,1.0254673075455862
1526328929052,-0.008728160524910322,-0.015564202334630295,1.0240024414435034
1526328929068,5.493247882810692E-4,-0.01751735713740743,1.0298619058518348
1526328929085,-0.004333562218661768,-0.019470511940184565,1.0298619058518348
1526328929101,-0.008728160524910322,-0.016540779736018862,1.0449988555733576
1526328929117,-0.010193026626993174,-0.008728160524910322,1.0117952239261463
1526328929133,-0.010193026626993174,-0.014099336232547444,1.0225375753414205
1526328929150,-0.0023804074158846333,-0.015564202334630295,1.0415808346684976
1526328929166,-0.0023804074158846333,-0.015564202334630295,1.0225375753414205
1526328929182,-0.007263294422827471,-0.011657892729076025,1.0225375753414205
1526328929199,-0.003356984817273201,-0.010681315327687457,1.0376745250629433
1526328929215,-0.004333562218661768,-0.015075913633936011,1.0142366674296177
1526328929231,-0.010681315327687457,-0.019470511940184565,1.0327916380560005
1526328929248,-0.004821850919356052,-0.019470511940184565,1.0454871442740519
1526328929264,-0.005310139620050336,-0.014587624933241727,1.0279087510490577
1526328929280,-0.00579842832074462,-0.0214236667429617,1.0293736171511405
1526328929296,-0.007263294422827471,-0.009216449225604606,1.0342565041580833
1526328929313,-0.00970473792629889,-0.009216449225604606,1.0259555962462805
1526328929329,-0.009216449225604606,-0.010193026626993174,1.0396276798657205
1526328929345,-0.008728160524910322,-0.016540779736018862,1.0225375753414205
1526328929362,-0.00970473792629889,-0.014099336232547444,1.0327916380560005
1526328929378,-0.007263294422827471,-0.020447089341573133,1.0342565041580833
1526328929394,-0.0038452735179674846,-0.007751583123521755,1.024979018844892
1526328929411,-0.0018921187151903496,-0.018493934538795997,1.0445105668726633
1526328929427,-0.009216449225604606,-0.013122758831158876,1.0244907301441977
1526328929443,0.0015259021896696368,-0.018493934538795997,1.0362096589608605
1526328929460,-0.004333562218661768,-0.015075913633936011,1.0415808346684976
1526328929476,-0.010681315327687457,-0.01361104753185316,1.0523231860837718
1526328929492,-0.010193026626993174,-0.012634470130464592,1.0342565041580833
1526328929509,-0.007263294422827471,-0.013122758831158876,1.0279087510490577
1526328929525,-0.008728160524910322,-0.02288853284504455,1.035233081559472
1526328929541,-0.014587624933241727,-0.012634470130464592,1.0357213702601662
1526328929558,-0.0023804074158846333,-0.007751583123521755,1.0200961318379491
1526328929574,-0.007751583123521755,-0.010193026626993174,1.0191195544365605
1526328929590,-0.00579842832074462,-0.020935378042267416,1.0415808346684976
1526328929606,-0.008239871824216038,-0.018005645838101714,1.0176546883344777
1526328929623,-0.011169604028381741,-0.015564202334630295,1.028397039749752
1526328929639,-0.0014038300144960658,-0.01361104753185316,1.0161898222323948
1526328929655,-0.01605249103532458,-0.018005645838101714,1.0161898222323948
1526328929672,-0.010681315327687457,-0.018493934538795997,1.028397039749752
1526328929688,-0.0038452735179674846,-0.009216449225604606,1.0308384832532234
1526328929704,-0.00970473792629889,-0.014099336232547444,1.024979018844892
1526328929720,-0.00579842832074462,-0.010681315327687457,1.0342565041580833
1526328929737,-0.002868696116578917,-0.012634470130464592,1.033768215457389
1526328929753,-0.004333562218661768,-0.018493934538795997,1.028397039749752
1526328929769,-0.006775005722133187,-0.015075913633936011,1.0279087510490577
1526328929786,-0.009216449225604606,-0.020447089341573133,1.0293736171511405
1526328929802,-0.00970473792629889,-0.01361104753185316,1.0288853284504462
1526328929818,-0.00970473792629889,-0.018005645838101714,1.021560997940032
1526328929835,-0.010681315327687457,-0.006775005722133187,1.0186312657358663
1526328929851,-0.009216449225604606,-0.014099336232547444,1.0254673075455862
1526328929867,-0.003356984817273201,-0.014099336232547444,1.026932173647669
1526328929883,-0.005310139620050336,-0.01605249103532458,1.040604257267109
1526328929900,-0.007263294422827471,-0.012634470130464592,1.044022278171969
1526328929916,-0.014099336232547444,-0.020935378042267416,1.0327916380560005
1526328929932,-0.009216449225604606,-0.007751583123521755,1.023514152742809
1526328929949,-0.005310139620050336,-0.008728160524910322,1.037186236362249
1526328929965,-0.003356984817273201,-0.01361104753185316,1.026932173647669
1526328929981,0.0020141908903639205,-0.01361104753185316,1.0332799267566948
1526328929998,-0.007263294422827471,-0.008239871824216038,1.0166781109330891
1526328930014,-0.010193026626993174,-0.011169604028381741,1.014724956130312
1526328930030,-0.00970473792629889,-0.013122758831158876,1.0332799267566948
1526328930046,-0.007751583123521755,-0.01898222323949028,1.0357213702601662
1526328930063,0.003479056992446772,-0.011657892729076025,1.0332799267566948
1526328930079,-0.010681315327687457,-0.012634470130464592,1.0176546883344777
1526328930096,-0.008239871824216038,-0.013122758831158876,1.0171663996337834
1526328930112,-0.0023804074158846333,-0.02288853284504455,1.0200961318379491
1526328930128,-0.004333562218661768,-0.014587624933241727,1.0200961318379491
1526328930145,-0.004821850919356052,-0.012634470130464592,1.0288853284504462
1526328930161,-0.007263294422827471,-0.016540779736018862,1.0161898222323948
1526328930177,-0.008728160524910322,-0.01751735713740743,1.0259555962462805
1526328930193,-0.009216449225604606,-0.01361104753185316,1.0357213702601662
1526328930210,-0.007751583123521755,-0.011657892729076025,1.0176546883344777
1526328930226,-0.004821850919356052,-0.007751583123521755,1.0244907301441977
1526328930242,-0.009216449225604606,-0.01605249103532458,1.0391393911650262
1526328930259,-0.007263294422827471,-0.018493934538795997,1.0357213702601662
1526328930275,-0.006775005722133187,-0.013122758831158876,1.0327916380560005
1526328930291,-0.0014038300144960658,-0.002868696116578917,1.0313267719539176
1526328930308,-0.002868696116578917,-0.01751735713740743,1.031815060654612
1526328930324,0.0020141908903639205,-0.015564202334630295,1.0240024414435034
1526328930340,-0.0038452735179674846,-0.015075913633936011,1.0259555962462805
1526328930356,-0.002868696116578917,-0.01361104753185316,1.0279087510490577
1526328930373,-0.00970473792629889,-0.008239871824216038,1.0161898222323948
1526328930389,-0.005310139620050336,-0.013122758831158876,1.024979018844892
1526328930405,-0.004821850919356052,-0.014099336232547444,1.0298619058518348
1526328930422,-0.0014038300144960658,-0.01361104753185316,1.0240024414435034
1526328930438,-0.0038452735179674846,-0.01605249103532458,1.0293736171511405
1526328930454,-0.010681315327687457,-0.011657892729076025,1.0259555962462805
1526328930471,-0.015564202334630295,-0.01995880064087885,1.0376745250629433
1526328930487,-0.009216449225604606,-0.01995880064087885,1.0254673075455862
1526328930503,-0.011169604028381741,-0.01995880064087885,1.021560997940032
1526328930519,-0.011169604028381741,-0.002868696116578917,1.026932173647669
1526328930536,-0.007751583123521755,-0.024353398947127403,1.0166781109330891
1526328930552,-0.007263294422827471,-0.008239871824216038,1.0205844205386434
1526328930568,-9.15541313801782E-4,-0.014587624933241727,1.0279087510490577
1526328930585,-0.006775005722133187,-0.010681315327687457,1.026932173647669
1526328930601,-0.007263294422827471,-0.01361104753185316,1.035233081559472
1526328930617,-0.007751583123521755,-0.008728160524910322,1.0254673075455862
1526328930634,-0.006775005722133187,-0.011169604028381741,1.0293736171511405
1526328930650,-0.011169604028381741,-0.01751735713740743,1.0176546883344777
1526328930666,0.0025024795910582043,-0.019470511940184565,1.0225375753414205
1526328930682,-0.00970473792629889,-0.01898222323949028,1.0230258640421148
1526328930699,-0.00579842832074462,-0.015564202334630295,1.0293736171511405
1526328930715,-0.008239871824216038,-0.01898222323949028,1.0191195544365605
1526328930731,-0.0038452735179674846,-0.011657892729076025,1.0313267719539176
1526328930748,-0.002868696116578917,-0.006286717021438903,1.0308384832532234
1526328930764,-0.007751583123521755,-0.016540779736018862,1.0288853284504462
1526328930780,-0.0038452735179674846,-0.014099336232547444,1.0357213702601662
1526328930797,-0.006775005722133187,-0.01898222323949028,1.035233081559472
1526328930813,6.103608758678547E-5,-0.01605249103532458,1.0401159685664148
1526328930829,-0.014099336232547444,-0.011657892729076025,1.0410925459678033
1526328930846,-0.005310139620050336,-0.013122758831158876,1.0093537804226749
1526328930862,-0.008728160524910322,-0.01898222323949028,1.033768215457389
1526328930878,-0.009216449225604606,-0.00970473792629889,1.0176546883344777
1526328930895,-0.00970473792629889,-0.009216449225604606,1.0293736171511405
1526328930911,-0.005310139620050336,-0.015564202334630295,1.0420691233691919
1526328930927,-0.010193026626993174,-0.014587624933241727,1.0332799267566948
1526328930943,-0.004821850919356052,-0.018493934538795997,1.0391393911650262
1526328930960,-0.003356984817273201,-0.019470511940184565,1.0196078431372548
1526328930976,-0.0018921187151903496,-0.01361104753185316,1.0391393911650262
1526328930992,-0.002868696116578917,-0.014587624933241727,1.0127718013275349
1526328931009,-0.012634470130464592,-0.014587624933241727,1.024979018844892
1526328931025,-0.007263294422827471,-0.02288853284504455,1.0200961318379491
1526328931041,-0.010681315327687457,-0.019470511940184565,1.0396276798657205
1526328931058,-0.002868696116578917,-0.011169604028381741,1.0200961318379491
1526328931074,-0.00970473792629889,-0.020447089341573133,1.0366979476615548
1526328931090,-0.006775005722133187,-0.014587624933241727,1.0200961318379491
1526328931107,-0.004333562218661768,-0.00970473792629889,1.0376745250629433
1526328931123,-0.009216449225604606,-0.008239871824216038,1.0288853284504462
1526328931139,-0.0018921187151903496,-0.006775005722133187,1.0171663996337834
1526328931155,-0.009216449225604606,-0.014587624933241727,1.028397039749752
1526328931172,-0.005310139620050336,-0.009216449225604606,1.0308384832532234
1526328931188,-0.012146181429770309,-0.006286717021438903,1.024979018844892
1526328931204,-0.008239871824216038,-0.020447089341573133,1.024979018844892
1526328931221,-0.01605249103532458,-0.007751583123521755,1.037186236362249
1526328931237,-0.00579842832074462,-0.01995880064087885,1.023514152742809
1526328931253,-0.008239871824216038,-0.020935378042267416,1.0313267719539176
1526328931270,-0.006775005722133187,-0.02288853284504455,1.0425574120698862
1526328931286,-0.00579842832074462,-0.013122758831158876,1.0308384832532234
1526328931302,-0.006775005722133187,-0.016540779736018862,1.0381628137636376
1526328931318,-0.003356984817273201,-0.014099336232547444,1.0259555962462805
1526328931335,-0.01361104753185316,-0.01605249103532458,1.0274204623483634
1526328931351,-0.00579842832074462,-0.019470511940184565,1.028397039749752
1526328931367,-0.003356984817273201,-0.018493934538795997,1.0230258640421148
1526328931384,-0.008728160524910322,-0.01605249103532458,1.0362096589608605
1526328931400,-0.010681315327687457,-0.006775005722133187,1.0240024414435034
1526328931416,-0.007263294422827471,-0.016540779736018862,1.0254673075455862
1526328931433,-0.002868696116578917,-0.011169604028381741,1.0308384832532234
1526328931449,-0.003356984817273201,-0.014587624933241727,1.0196078431372548
1526328931465,-0.004821850919356052,-0.011169604028381741,1.035233081559472
1526328931482,-0.003356984817273201,-0.010681315327687457,1.0279087510490577
1526328931498,-0.012146181429770309,-0.015564202334630295,1.0288853284504462
1526328931514,0.005920500495918191,-0.013122758831158876,1.040604257267109
1526328931531,-0.003356984817273201,-0.010193026626993174,1.0259555962462805
1526328931547,-0.007263294422827471,-0.013122758831158876,1.0127718013275349
1526328931563,-0.009216449225604606,-0.010193026626993174,1.0357213702601662
1526328931579,-0.004821850919356052,-0.01995880064087885,1.0274204623483634
1526328931596,0.0015259021896696368,-0.023376821545738835,1.0176546883344777
1526328931612,-0.010681315327687457,-0.025818265049210254,1.0293736171511405
1526328931628,-0.012146181429770309,-0.020447089341573133,1.0298619058518348
1526328931645,-0.010193026626993174,-0.015075913633936011,1.0327916380560005
1526328931661,-0.007263294422827471,-0.010681315327687457,1.031815060654612
1526328931677,-0.009216449225604606,-0.01751735713740743,1.023514152742809
1526328931694,-9.15541313801782E-4,-0.011657892729076025,1.0327916380560005
1526328931710,-0.014099336232547444,-0.015075913633936011,1.0244907301441977
1526328931726,-0.006775005722133187,-0.024353398947127403,1.0259555962462805
1526328931742,-0.00579842832074462,-0.015075913633936011,1.0259555962462805
1526328931759,0.0020141908903639205,-0.015564202334630295,1.024979018844892
1526328931775,-0.007751583123521755,-0.011657892729076025,1.0279087510490577
1526328931791,-0.010681315327687457,-0.01361104753185316,1.0342565041580833
1526328931808,-0.007751583123521755,-0.015564202334630295,1.0186312657358663
1526328931824,-0.007751583123521755,-0.016540779736018862,1.0244907301441977
1526328931840,-0.00970473792629889,-0.009216449225604606,1.0279087510490577
1526328931857,-0.008728160524910322,-0.010681315327687457,1.0327916380560005
1526328931873,-0.01605249103532458,-0.015564202334630295,1.023514152742809
1526328931889,-0.01605249103532458,-0.014099336232547444,1.0435339894712747
1526328931905,-0.007751583123521755,-0.014587624933241727,1.0362096589608605
1526328931922,-0.004821850919356052,-0.015564202334630295,1.0323033493553062
1526328931938,-0.002868696116578917,-0.010193026626993174,1.033768215457389
1526328931954,-0.015075913633936011,-0.01898222323949028,1.0171663996337834
1526328931971,-0.004821850919356052,-0.018493934538795997,1.0332799267566948
1526328931987,-0.008728160524910322,-0.014099336232547444,1.0225375753414205
1526328932003,-0.00970473792629889,-0.01751735713740743,1.0357213702601662
1526328932020,-0.013122758831158876,-0.00579842832074462,1.0298619058518348
1526328932036,-0.011169604028381741,-0.020935378042267416,1.0313267719539176
1526328932052,-9.15541313801782E-4,-0.009216449225604606,1.0308384832532234
1526328932069,-0.00970473792629889,-0.01751735713740743,1.0366979476615548
1526328932085,-0.00970473792629889,-0.019470511940184565,1.0240024414435034
1526328932101,-0.005310139620050336,-0.015564202334630295,1.0357213702601662
1526328932118,-0.016540779736018862,-0.020935378042267416,1.0196078431372548
1526328932134,-0.004821850919356052,-0.012634470130464592,1.0186312657358663
1526328932150,0.0020141908903639205,-0.011657892729076025,1.031815060654612
1526328932166,-0.010193026626993174,-0.020935378042267416,1.0445105668726633
1526328932183,-0.012634470130464592,-0.018493934538795997,1.0298619058518348
1526328932199,-0.007751583123521755,-0.018493934538795997,1.033768215457389
1526328932215,-0.010193026626993174,-0.010681315327687457,1.021560997940032
1526328932232,0.0020141908903639205,-0.014587624933241727,1.014724956130312
1526328932248,-0.012634470130464592,-0.01361104753185316,1.037186236362249
1526328932264,-0.008728160524910322,-0.014587624933241727,1.0200961318379491
1526328932281,-0.008728160524910322,-0.010193026626993174,1.0274204623483634
1526328932297,-0.0023804074158846333,-0.012634470130464592,1.021560997940032
1526328932313,-0.008728160524910322,-0.014099336232547444,1.0327916380560005
1526328932329,-0.01361104753185316,-0.015564202334630295,1.0254673075455862
1526328932346,-0.004333562218661768,-0.014587624933241727,1.0293736171511405
1526328932362,-0.007751583123521755,-0.019470511940184565,1.0254673075455862
1526328932378,-0.010681315327687457,-0.011169604028381741,1.0279087510490577
1526328932395,-0.00579842832074462,-0.01361104753185316,1.031815060654612
1526328932411,-0.005310139620050336,-0.004821850919356052,1.0225375753414205
1526328932427,-0.014099336232547444,-0.014587624933241727,1.0210727092393377
1526328932444,-0.004821850919356052,-0.019470511940184565,1.0225375753414205
1526328932460,-0.0014038300144960658,-0.012634470130464592,1.033768215457389
1526328932476,-0.014099336232547444,-0.015564202334630295,1.0342565041580833
1526328932492,-0.010681315327687457,-0.019470511940184565,1.037186236362249
1526328932509,-0.0014038300144960658,-0.014587624933241727,1.0420691233691919
1526328932525,-0.006775005722133187,-0.01361104753185316,1.0254673075455862
1526328932541,-0.009216449225604606,-0.01605249103532458,1.0308384832532234
1526328932558,-0.00579842832074462,-0.01605249103532458,1.026932173647669
1526328932574,-0.009216449225604606,-0.01995880064087885,1.040604257267109
1526328932590,-0.0018921187151903496,-0.008239871824216038,1.0279087510490577
1526328932607,-0.002868696116578917,-0.011657892729076025,1.0366979476615548
1526328932623,-0.00970473792629889,-0.013122758831158876,1.0391393911650262
1526328932639,-0.007751583123521755,-0.01605249103532458,1.0298619058518348
1526328932656,-9.15541313801782E-4,-0.00579842832074462,1.0298619058518348
1526328932672,-0.012634470130464592,-0.01361104753185316,1.0332799267566948
1526328932688,-0.007751583123521755,-0.015075913633936011,1.033768215457389
1526328932705,-0.007751583123521755,-0.003356984817273201,1.0298619058518348
1526328932721,-0.0023804074158846333,-0.015075913633936011,1.0161898222323948
1526328932737,-0.010681315327687457,-0.014587624933241727,1.0259555962462805
1526328932753,-0.012146181429770309,-0.019470511940184565,1.026932173647669
1526328932770,0.001037613488975353,-0.011657892729076025,1.024979018844892
1526328932786,-0.002868696116578917,-0.011657892729076025,1.0254673075455862
1526328932802,-0.008728160524910322,-0.011657892729076025,1.0205844205386434
1526328932819,-0.012146181429770309,-0.02288853284504455,1.0166781109330891
1526328932835,-0.0018921187151903496,-0.007751583123521755,1.0420691233691919
1526328932851,-0.0023804074158846333,-0.01898222323949028,1.0240024414435034
1526328932868,0.006408789196612474,-0.011169604028381741,1.0254673075455862
1526328932884,-0.01361104753185316,-0.011169604028381741,1.0274204623483634
1526328932900,-0.006775005722133187,-0.014587624933241727,1.021560997940032
1526328932917,-0.007751583123521755,-0.015564202334630295,1.0274204623483634
1526328932933,-0.007751583123521755,-0.010681315327687457,1.0152132448310063
1526328932949,-0.012634470130464592,-0.010681315327687457,1.0376745250629433
1526328932965,-0.013122758831158876,-0.011169604028381741,1.0240024414435034
1526328932982,-0.00970473792629889,-0.014587624933241727,1.0469520103761347
1526328932998,-0.003356984817273201,-0.014587624933241727,1.0332799267566948
1526328933014,-0.011169604028381741,-0.011657892729076025,1.0293736171511405
1526328933031,-0.006775005722133187,-0.00970473792629889,1.0288853284504462
1526328933047,-0.00970473792629889,-0.015564202334630295,1.0323033493553062
1526328933063,-0.007751583123521755,-0.022400244144350268,1.0313267719539176
1526328933080,-0.012634470130464592,-0.01898222323949028,1.0401159685664148
1526328933096,-0.014099336232547444,-0.008239871824216038,1.0313267719539176
1526328933112,-0.014099336232547444,-0.020447089341573133,1.0327916380560005
1526328933128,0.0020141908903639205,-0.01605249103532458,1.0127718013275349
1526328933145,-0.00579842832074462,-0.01995880064087885,1.021560997940032
1526328933161,-0.011169604028381741,-0.019470511940184565,1.024979018844892
1526328933177,-0.010681315327687457,-0.012634470130464592,1.0323033493553062
1526328933194,-0.007751583123521755,-0.015075913633936011,1.0308384832532234
1526328933210,-0.010193026626993174,-0.01898222323949028,1.035233081559472
1526328933226,-0.010681315327687457,-0.015564202334630295,1.0293736171511405
1526328933243,-0.008239871824216038,-0.015564202334630295,1.037186236362249
1526328933259,0.002990768291752488,-0.01361104753185316,1.0342565041580833
1526328933275,-0.009216449225604606,-0.019470511940184565,1.0254673075455862
1526328933291,-0.0018921187151903496,-0.009216449225604606,1.0323033493553062
1526328933308,-0.00970473792629889,-0.012634470130464592,1.0293736171511405
1526328933324,-0.015075913633936011,-0.015564202334630295,1.0327916380560005
1526328933340,-0.0038452735179674846,-0.01361104753185316,1.0225375753414205
1526328933357,-0.002868696116578917,-0.01605249103532458,1.0240024414435034
1526328933373,0.001037613488975353,-0.013122758831158876,1.0200961318379491
1526328933389,-0.006775005722133187,-0.014587624933241727,1.0298619058518348
1526328933406,-0.0038452735179674846,-0.008239871824216038,1.0362096589608605
1526328933422,-0.0014038300144960658,-0.015075913633936011,1.0200961318379491
1526328933438,-0.01361104753185316,-0.01361104753185316,1.0425574120698862
1526328933455,6.103608758678547E-5,-0.01605249103532458,1.0196078431372548
1526328933471,5.493247882810692E-4,-0.019470511940184565,1.037186236362249
1526328933487,0.0039673456931410556,-0.00970473792629889,1.0332799267566948
1526328933504,-0.002868696116578917,-0.011657892729076025,1.0205844205386434
1526328933520,-0.014099336232547444,-0.011169604028381741,1.0298619058518348
1526328933536,-0.01361104753185316,-0.018493934538795997,1.033768215457389
1526328933553,-0.006775005722133187,-0.011657892729076025,1.026932173647669
1526328933569,-0.014587624933241727,-0.01605249103532458,1.0435339894712747
1526328933585,-0.005310139620050336,-0.012634470130464592,1.0435339894712747
1526328933601,-0.008239871824216038,-0.01751735713740743,1.0362096589608605
1526328933618,-0.00579842832074462,-0.013122758831158876,1.0205844205386434
1526328933634,-0.002868696116578917,-0.01995880064087885,1.0366979476615548
1526328933650,-0.00970473792629889,-0.01751735713740743,1.0240024414435034
1526328933667,-0.008239871824216038,-0.016540779736018862,1.028397039749752
1526328933683,-0.0023804074158846333,-0.011657892729076025,1.0259555962462805
1526328933699,-0.006775005722133187,-0.022400244144350268,1.0244907301441977
1526328933716,-0.008239871824216038,-0.011169604028381741,1.033768215457389
1526328933732,-0.002868696116578917,-0.018005645838101714,1.0420691233691919
1526328933748,-0.007751583123521755,-0.014587624933241727,1.0240024414435034
1526328933764,-0.007263294422827471,-0.00970473792629889,1.0357213702601662
1526328933781,-0.014099336232547444,-0.019470511940184565,1.0186312657358663
1526328933797,5.493247882810692E-4,-0.01751735713740743,1.028397039749752
1526328933813,-0.006775005722133187,-0.01995880064087885,1.0254673075455862
1526328933830,-0.010193026626993174,-0.011657892729076025,1.0205844205386434
1526328933846,6.103608758678547E-5,-0.008728160524910322,1.0391393911650262
1526328933862,-0.004333562218661768,-0.010193026626993174,1.0259555962462805
1526328933879,-0.005310139620050336,-0.014099336232547444,1.0293736171511405
1526328933895,-0.008239871824216038,-0.019470511940184565,1.0313267719539176
1526328933911,-0.00579842832074462,-0.018005645838101714,1.0327916380560005
1526328933928,-0.005310139620050336,-0.01361104753185316,1.0279087510490577
1526328933944,-0.006775005722133187,-0.01898222323949028,1.0323033493553062
1526328933960,-9.15541313801782E-4,-0.018005645838101714,1.033768215457389
1526328933976,-0.014587624933241727,-0.018005645838101714,1.0332799267566948
1526328933993,-0.014587624933241727,-0.010681315327687457,1.0381628137636376
1526328934009,-0.00970473792629889,-0.014099336232547444,1.0274204623483634
1526328934026,-0.008728160524910322,-0.016540779736018862,1.026932173647669
1526328934042,-0.012146181429770309,-0.018005645838101714,1.023514152742809
1526328934058,-0.0023804074158846333,-0.008239871824216038,1.0210727092393377
1526328934074,-0.007263294422827471,-0.010193026626993174,1.0254673075455862
1526328934091,-0.010193026626993174,-0.016540779736018862,1.0191195544365605
1526328934107,-0.004821850919356052,-0.01361104753185316,1.0288853284504462
1526328934123,-0.0038452735179674846,-0.007751583123521755,1.0205844205386434
1526328934140,5.493247882810692E-4,-0.009216449225604606,1.031815060654612
1526328934156,-0.008728160524910322,-0.015564202334630295,1.0293736171511405
1526328934172,-0.006775005722133187,-0.01898222323949028,1.0323033493553062
1526328934189,-0.0038452735179674846,-0.01995880064087885,1.0332799267566948
1526328934205,-0.006775005722133187,-0.01605249103532458,1.0327916380560005
1526328934221,-0.014587624933241727,-0.015075913633936011,1.0332799267566948
1526328934237,-0.007751583123521755,-0.007751583123521755,1.0323033493553062
1526328934254,-0.006775005722133187,-0.024841687647821686,1.0288853284504462
1526328934270,-0.007263294422827471,-0.006775005722133187,1.0366979476615548
1526328934286,-0.004821850919356052,-0.015564202334630295,1.0308384832532234
1526328934303,-0.0023804074158846333,-0.009216449225604606,1.0410925459678033
1526328934319,-0.010681315327687457,-0.011169604028381741,1.033768215457389
1526328934335,-0.004333562218661768,-0.019470511940184565,1.0191195544365605
1526328934352,-0.00970473792629889,-0.018005645838101714,1.026932173647669
1526328934368,-0.007751583123521755,-0.01898222323949028,1.028397039749752
1526328934384,-0.003356984817273201,-0.016540779736018862,1.0230258640421148
1526328934401,-0.007751583123521755,-0.016540779736018862,1.0420691233691919
1526328934417,5.493247882810692E-4,-0.011657892729076025,1.0401159685664148
1526328934433,-0.011169604028381741,-0.011169604028381741,1.0244907301441977
1526328934449,6.103608758678547E-5,-0.015075913633936011,1.0205844205386434
1526328934466,-0.007751583123521755,-0.018005645838101714,1.035233081559472
1526328934482,-0.008239871824216038,-0.01751735713740743,1.0254673075455862
1526328934498,-0.00579842832074462,-0.014099336232547444,1.0205844205386434
1526328934515,-0.01751735713740743,-0.01995880064087885,1.0342565041580833
1526328934531,-0.010681315327687457,-0.014099336232547444,1.0327916380560005
1526328934547,-0.007751583123521755,-0.018005645838101714,1.0327916380560005
1526328934564,-0.012634470130464592,-0.015564202334630295,1.024979018844892
1526328934580,-0.0018921187151903496,-0.008728160524910322,1.0279087510490577
1526328934596,-0.012146181429770309,-0.023376821545738835,1.0186312657358663
1526328934612,-0.010193026626993174,-0.01751735713740743,1.0240024414435034
1526328934629,-0.012146181429770309,-0.023376821545738835,1.040604257267109
1526328934645,-0.012146181429770309,-0.013122758831158876,1.0323033493553062
